date,epoch_time,blink_speed,blink_strength,eye_move_up,eye_move_down,eye_move_left,eye_move_right,acc_x,acc_y,acc_z,roll,pitch,yaw,is_walking,fit_error,power_left,event,segment,app_state
2016-06-14_13-24-41,1465903481.48015,0,0,0,0,0,0,-2,5,-14,-5.750000,19.360001,168.639999,0,0,5,0,0,0
2016-06-14_13-24-41,1465903481.51756,0,0,0,0,0,0,-2,5,-14,-5.730000,19.360001,168.550003,0,0,5,0,0,0
2016-06-14_13-24-41,1465903481.55502,0,0,0,0,0,0,-2,5,-14,-5.760000,19.400000,168.410004,0,0,5,0,0,0
2016-06-14_13-24-41,1465903481.63005,0,0,0,0,0,0,-2,5,-14,-5.800000,19.400000,168.369995,0,0,5,0,0,0
2016-06-14_13-24-41,1465903481.66757,0,0,0,0,0,0,-2,5,-14,-5.790000,19.370001,168.399994,0,0,5,0,0,0
2016-06-14_13-24-41,1465903481.70524,0,0,0,0,0,0,-2,5,-14,-5.800000,19.350000,168.339996,0,0,5,0,0,0
2016-06-14_13-24-41,1465903481.78010,0,0,0,0,0,0,-2,5,-14,-5.850000,19.340000,168.229996,0,0,5,0,0,0
2016-06-14_13-24-41,1465903481.81750,0,0,0,0,0,0,-2,5,-14,-5.860000,19.330000,168.190002,0,0,5,0,0,0
2016-06-14_13-24-41,1465903481.85500,0,0,0,0,0,0,-2,5,-14,-5.830000,19.299999,168.179993,0,0,5,0,0,0
2016-06-14_13-24-41,1465903481.93013,0,0,0,0,0,0,-2,5,-14,-5.850000,19.250000,168.130005,0,0,5,0,0,0
2016-06-14_13-24-41,1465903481.96752,0,0,0,0,0,0,-2,5,-14,-5.870000,19.209999,168.089996,0,0,5,0,0,0
2016-06-14_13-24-42,1465903482.00501,0,0,0,0,0,0,-2,5,-14,-5.840000,19.230000,168.050003,0,0,5,0,0,0
2016-06-14_13-24-42,1465903482.08011,0,0,0,0,0,0,-2,5,-14,-5.900000,19.219999,168.029999,0,0,5,0,0,0
2016-06-14_13-24-42,1465903482.11752,0,0,0,0,0,0,-2,5,-14,-5.870000,19.209999,167.970001,0,0,5,0,0,0
2016-06-14_13-24-42,1465903482.15501,0,0,0,0,0,0,-2,5,-14,-5.830000,19.200001,167.880005,0,0,5,0,0,0
2016-06-14_13-24-42,1465903482.23008,0,0,0,0,0,0,-2,5,-14,-5.820000,19.240000,167.699997,0,0,5,0,0,0
2016-06-14_13-24-42,1465903482.26756,0,0,0,0,0,0,-2,5,-14,-5.850000,19.260000,167.580002,0,0,5,0,0,0
2016-06-14_13-24-42,1465903482.30522,0,0,0,0,0,0,-2,5,-14,-5.830000,19.250000,167.529999,0,0,5,0,0,0
2016-06-14_13-24-42,1465903482.38014,0,0,0,0,0,0,-2,5,-14,-5.780000,19.200001,167.460007,0,0,5,0,0,0
2016-06-14_13-24-42,1465903482.41754,0,0,0,0,0,0,-2,5,-14,-5.790000,19.110001,167.300003,0,0,5,0,0,0
2016-06-14_13-24-42,1465903482.45504,0,0,0,0,0,0,-2,5,-14,-5.790000,19.010000,167.169998,0,0,5,0,0,0
2016-06-14_13-24-42,1465903482.53014,0,0,0,0,0,0,-2,5,-14,-5.770000,18.959999,167.119995,0,0,5,0,0,0
2016-06-14_13-24-42,1465903482.56752,0,0,0,0,0,0,-2,5,-14,-5.760000,18.940001,167.070007,0,0,5,0,0,0
2016-06-14_13-24-42,1465903482.60503,0,0,0,0,0,0,-2,5,-14,-5.800000,18.879999,167.000000,0,0,5,0,0,0
2016-06-14_13-24-42,1465903482.67984,0,0,0,0,0,0,-2,5,-14,-5.840000,18.809999,166.970001,0,0,5,0,0,0
2016-06-14_13-24-42,1465903482.71727,0,0,0,0,0,0,-2,5,-14,-5.880000,18.740000,166.949997,0,0,5,0,0,0
2016-06-14_13-24-42,1465903482.75476,0,0,0,0,0,0,-2,5,-14,-5.980000,18.600000,166.949997,0,0,5,0,0,0
2016-06-14_13-24-42,1465903482.83018,0,0,0,0,0,0,-2,5,-14,-6.030000,18.410000,166.850006,0,0,5,0,0,0
2016-06-14_13-24-42,1465903482.86753,150,69,0,0,0,0,-2,5,-14,-6.110000,18.150000,166.669998,0,0,5,0,0,0
2016-06-14_13-24-42,1465903482.90514,0,0,0,0,0,0,-2,5,-14,-6.180000,17.879999,166.440002,0,0,5,0,0,0
2016-06-14_13-24-42,1465903482.98015,0,0,0,0,0,0,-2,5,-15,-6.280000,17.680000,166.270004,0,0,5,0,0,0
2016-06-14_13-24-43,1465903483.01752,0,0,0,0,0,0,-1,4,-14,-6.330000,17.559999,166.190002,0,0,5,0,0,0
2016-06-14_13-24-43,1465903483.05504,0,0,0,0,0,0,-1,4,-14,-6.360000,17.500000,166.179993,0,0,5,0,0,0
2016-06-14_13-24-43,1465903483.13013,0,0,0,0,0,0,-2,4,-15,-6.440000,17.410000,166.130005,0,0,5,0,0,0
2016-06-14_13-24-43,1465903483.16760,0,0,0,0,0,0,-1,5,-15,-6.570000,17.180000,166.020004,0,0,5,0,0,0
2016-06-14_13-24-43,1465903483.20504,0,0,0,0,0,0,-1,4,-15,-6.660000,16.790001,165.940002,0,0,5,0,0,0
2016-06-14_13-24-43,1465903483.28017,0,0,0,0,0,0,-1,4,-15,-6.770000,16.299999,165.830002,0,0,5,0,0,0
2016-06-14_13-24-43,1465903483.31755,0,0,0,0,0,0,-1,4,-15,-6.930000,15.800000,165.580002,0,0,5,0,0,0
2016-06-14_13-24-43,1465903483.35505,0,0,0,0,0,1,-1,4,-15,-7.130000,15.330000,165.199997,0,0,5,0,0,0
2016-06-14_13-24-43,1465903483.43041,0,0,0,0,0,0,-1,4,-15,-7.480000,15.090000,164.970001,0,0,5,0,0,0
2016-06-14_13-24-43,1465903483.46762,0,0,0,0,0,0,-1,4,-15,-7.770000,15.010000,164.960007,0,0,5,0,0,0
2016-06-14_13-24-43,1465903483.50511,0,0,0,0,0,0,-1,4,-15,-7.930000,15.050000,165.100006,0,0,5,0,0,0
2016-06-14_13-24-43,1465903483.58019,0,0,0,0,0,0,-1,4,-15,-8.070000,15.150000,165.199997,0,0,5,0,0,0
2016-06-14_13-24-43,1465903483.61775,0,0,0,0,0,0,-1,4,-15,-8.140000,15.330000,165.210007,0,0,5,0,0,0
2016-06-14_13-24-43,1465903483.65504,0,0,0,0,0,0,-1,4,-15,-8.140000,15.470000,165.210007,0,0,5,0,0,0
2016-06-14_13-24-43,1465903483.73013,0,0,0,0,0,0,-1,4,-15,-8.030000,15.590000,165.210007,0,0,5,0,0,0
2016-06-14_13-24-43,1465903483.76765,0,0,0,0,0,0,-1,4,-15,-7.940000,15.660000,165.089996,0,0,5,0,0,0
2016-06-14_13-24-43,1465903483.80505,0,0,0,0,0,0,-1,4,-15,-7.900000,15.670000,164.889999,0,0,5,0,0,0
2016-06-14_13-24-43,1465903483.88009,0,0,0,0,0,0,-1,4,-15,-7.860000,15.660000,164.660004,0,0,5,0,0,0
2016-06-14_13-24-43,1465903483.91755,0,0,0,0,0,0,-1,4,-15,-7.840000,15.620000,164.429993,0,0,5,0,0,0
2016-06-14_13-24-43,1465903483.95519,0,0,0,0,0,0,-1,4,-15,-7.820000,15.520000,164.160004,0,0,5,0,0,0
2016-06-14_13-24-44,1465903484.03017,0,0,0,0,0,0,-1,4,-15,-7.740000,15.440000,163.839996,0,0,5,0,0,0
2016-06-14_13-24-44,1465903484.10454,0,0,0,0,0,0,-1,4,-15,-7.680000,15.360000,163.520004,0,0,5,0,0,0
2016-06-14_13-24-44,1465903484.10664,0,0,0,0,0,0,-1,4,-15,-7.610000,15.190000,163.240005,0,0,5,0,0,0
2016-06-14_13-24-44,1465903484.21698,0,0,0,0,0,0,-1,4,-15,-7.580000,14.980000,162.880005,0,0,5,0,0,0
2016-06-14_13-24-44,1465903484.21919,0,0,0,0,0,0,-1,4,-15,-7.660000,14.730000,162.339996,0,0,5,0,0,0
2016-06-14_13-24-44,1465903484.25513,0,0,0,0,0,0,-1,4,-15,-7.760000,14.570000,161.779999,0,0,5,0,0,0
2016-06-14_13-24-44,1465903484.33011,0,0,0,0,0,0,-1,4,-15,-7.790000,14.540000,161.410004,0,0,5,0,0,0
2016-06-14_13-24-44,1465903484.36757,0,0,0,0,1,0,-1,4,-15,-7.720000,14.540000,161.229996,0,0,5,0,0,0
2016-06-14_13-24-44,1465903484.40507,0,0,0,0,0,0,-1,4,-15,-7.710000,14.540000,161.039993,0,0,5,0,0,0
2016-06-14_13-24-44,1465903484.48016,0,0,0,0,0,0,-1,4,-15,-7.720000,14.580000,160.839996,0,0,5,0,0,0
2016-06-14_13-24-44,1465903484.51758,0,0,0,0,0,0,-1,4,-15,-7.720000,14.690000,160.660004,0,0,5,0,0,0
2016-06-14_13-24-44,1465903484.59258,0,0,0,0,0,0,-1,4,-15,-7.670000,14.820000,160.509995,0,0,5,0,0,0
2016-06-14_13-24-44,1465903484.63014,0,0,0,1,0,0,-1,4,-15,-7.650000,14.910000,160.369995,0,0,5,0,0,0
2016-06-14_13-24-44,1465903484.66757,0,0,0,0,0,0,-1,4,-15,-7.690000,14.940000,160.289993,0,0,5,0,0,0
2016-06-14_13-24-44,1465903484.70506,0,0,0,0,0,0,-1,4,-14,-7.710000,15.030000,160.270004,0,0,5,0,0,0
2016-06-14_13-24-44,1465903484.78016,0,0,0,0,0,0,-1,4,-15,-7.780000,15.030000,160.330002,0,0,5,0,0,0
2016-06-14_13-24-44,1465903484.81760,0,0,0,0,0,0,-1,4,-15,-7.740000,15.050000,160.360001,0,0,5,0,0,0
2016-06-14_13-24-44,1465903484.85526,0,0,0,0,0,0,-1,4,-15,-7.700000,15.040000,160.330002,0,0,5,0,0,0
2016-06-14_13-24-44,1465903484.93006,0,0,0,0,0,0,-1,4,-15,-7.670000,15.080000,160.240005,0,0,5,0,0,0
2016-06-14_13-24-44,1465903484.96756,0,0,0,0,0,0,-1,4,-15,-7.690000,15.240000,160.199997,0,0,5,0,0,0
2016-06-14_13-24-45,1465903485.00507,0,0,0,0,0,0,-1,4,-15,-7.750000,15.480000,160.179993,0,0,5,0,0,0
2016-06-14_13-24-45,1465903485.08017,0,0,0,0,0,0,-1,4,-15,-7.790000,15.640000,160.100006,0,0,5,0,0,0
2016-06-14_13-24-45,1465903485.11757,0,0,0,0,0,0,-1,4,-15,-7.830000,15.700000,159.990005,0,0,5,0,0,0
2016-06-14_13-24-45,1465903485.15508,0,0,0,0,0,0,-1,5,-15,-7.830000,15.670000,159.889999,0,0,5,0,0,0
2016-06-14_13-24-45,1465903485.22970,0,0,0,0,0,0,-1,4,-15,-7.800000,15.660000,159.839996,0,0,5,0,0,0
2016-06-14_13-24-45,1465903485.26717,0,0,0,0,0,0,-1,4,-15,-7.840000,15.720000,159.830002,0,0,5,0,0,0
2016-06-14_13-24-45,1465903485.30484,0,0,0,0,0,0,-1,4,-15,-7.890000,15.820000,159.860001,0,0,5,0,0,0
2016-06-14_13-24-45,1465903485.38017,0,0,0,0,0,0,-1,5,-15,-7.860000,15.880000,159.839996,0,0,5,0,0,0
2016-06-14_13-24-45,1465903485.41768,0,0,0,0,0,0,-1,5,-15,-7.890000,15.920000,159.789993,0,0,5,0,0,0
2016-06-14_13-24-45,1465903485.45530,0,0,0,0,0,0,-1,5,-15,-7.810000,15.850000,159.669998,0,0,5,0,0,0
2016-06-14_13-24-45,1465903485.53036,0,0,0,0,0,0,-1,4,-14,-7.730000,15.720000,159.559998,0,0,5,0,0,0
2016-06-14_13-24-45,1465903485.60457,0,0,0,0,0,0,-1,4,-15,-7.660000,15.560000,159.429993,0,0,5,0,0,0
2016-06-14_13-24-45,1465903485.60673,0,0,0,1,0,0,-1,4,-15,-7.630000,15.420000,159.309998,0,0,5,0,0,0
2016-06-14_13-24-45,1465903485.68018,0,0,0,0,0,0,-1,4,-15,-7.600000,15.280000,159.259995,0,0,5,0,0,0
2016-06-14_13-24-45,1465903485.71757,0,0,0,0,0,0,-1,4,-15,-7.580000,15.080000,159.220001,0,0,5,0,0,0
2016-06-14_13-24-45,1465903485.75509,0,0,0,0,0,0,-1,4,-15,-7.640000,14.920000,159.210007,0,0,5,0,0,0
2016-06-14_13-24-45,1465903485.83021,0,0,0,0,0,0,-1,4,-15,-7.700000,14.860000,159.229996,0,0,5,0,0,0
2016-06-14_13-24-45,1465903485.86765,0,0,0,0,0,0,-1,4,-15,-7.750000,14.790000,159.270004,0,0,5,0,0,0
2016-06-14_13-24-45,1465903485.90510,0,0,0,0,0,0,-1,4,-15,-7.790000,14.660000,159.259995,0,0,5,0,0,0
2016-06-14_13-24-45,1465903485.98014,0,0,0,0,0,0,-1,4,-15,-7.820000,14.490000,159.210007,0,0,5,0,0,0
2016-06-14_13-24-46,1465903486.01758,0,0,0,0,0,0,-1,4,-14,-7.800000,14.370000,159.059998,0,0,5,0,0,0
2016-06-14_13-24-46,1465903486.05514,0,0,0,0,0,0,-1,4,-15,-7.830000,14.250000,158.940002,0,0,5,0,0,0
2016-06-14_13-24-46,1465903486.13042,0,0,0,0,0,0,-1,4,-15,-7.740000,14.190000,158.779999,0,0,5,0,0,0
2016-06-14_13-24-46,1465903486.16759,0,0,0,0,0,0,-1,4,-15,-7.670000,14.190000,158.610001,0,0,5,0,0,0
2016-06-14_13-24-46,1465903486.20509,0,0,0,0,0,0,-1,4,-15,-7.550000,14.280000,158.309998,0,0,5,0,0,0
2016-06-14_13-24-46,1465903486.28021,0,0,0,0,0,0,-1,4,-15,-7.390000,14.360000,157.779999,0,0,5,0,0,0
2016-06-14_13-24-46,1465903486.31758,0,0,0,0,0,0,-1,4,-15,-7.230000,14.350000,157.149994,0,0,5,0,0,0
2016-06-14_13-24-46,1465903486.35508,0,0,0,0,0,0,-1,4,-15,-7.150000,14.390000,156.639999,0,0,5,0,0,0
2016-06-14_13-24-46,1465903486.43070,0,0,0,0,0,0,-1,4,-15,-7.170000,14.480000,156.360001,0,0,5,0,0,0
2016-06-14_13-24-46,1465903486.46827,0,0,0,0,0,0,-1,4,-15,-7.230000,14.640000,156.339996,0,0,5,0,0,0
2016-06-14_13-24-46,1465903486.50569,0,0,0,0,0,0,-1,4,-15,-7.300000,14.780000,156.449997,0,0,5,0,0,0
2016-06-14_13-24-46,1465903486.58022,0,0,0,0,0,0,-1,4,-15,-7.390000,14.770000,156.559998,0,0,5,0,0,0
2016-06-14_13-24-46,1465903486.61759,0,0,0,0,0,0,-1,4,-15,-7.490000,14.660000,156.589996,0,0,5,0,0,0
2016-06-14_13-24-46,1465903486.65513,0,0,0,0,0,0,-1,4,-15,-7.560000,14.600000,156.559998,0,0,5,0,0,0
2016-06-14_13-24-46,1465903486.73040,0,0,0,0,0,0,-1,4,-15,-7.620000,14.520000,156.559998,0,0,5,0,0,0
2016-06-14_13-24-46,1465903486.76759,0,0,0,0,0,0,-1,4,-15,-7.580000,14.440000,156.580002,0,0,5,0,0,0
2016-06-14_13-24-46,1465903486.84262,0,0,0,0,0,0,-1,4,-15,-7.550000,14.390000,156.610001,0,0,5,0,0,0
2016-06-14_13-24-46,1465903486.88021,0,0,0,1,0,1,-1,4,-15,-7.600000,14.360000,156.600006,0,0,5,0,0,0
2016-06-14_13-24-46,1465903486.91759,0,0,0,0,0,0,-1,4,-15,-7.730000,14.310000,156.589996,0,0,5,0,0,0
2016-06-14_13-24-46,1465903486.95511,0,0,0,0,0,0,-1,4,-15,-7.810000,14.240000,156.600006,0,0,5,0,0,0
2016-06-14_13-24-47,1465903487.03025,0,0,0,0,0,0,-1,4,-15,-7.860000,14.280000,156.660004,0,0,5,0,0,0
2016-06-14_13-24-47,1465903487.10459,0,0,0,0,0,0,-1,4,-15,-7.870000,14.400000,156.850006,0,0,5,0,0,0
2016-06-14_13-24-47,1465903487.10685,0,0,0,1,0,0,-1,4,-15,-7.900000,14.550000,157.270004,0,0,5,0,0,0
2016-06-14_13-24-47,1465903487.18021,0,0,0,0,0,0,-1,4,-15,-7.860000,14.590000,157.639999,0,0,5,0,0,0
2016-06-14_13-24-47,1465903487.25454,0,0,0,0,0,0,-1,4,-15,-7.770000,14.490000,157.860001,0,0,5,0,0,0
2016-06-14_13-24-47,1465903487.25669,0,0,0,0,0,0,-1,4,-15,-7.570000,14.390000,158.050003,0,0,5,0,0,0
2016-06-14_13-24-47,1465903487.33025,0,0,0,0,0,0,-1,4,-15,-7.370000,14.280000,158.190002,0,0,5,0,0,0
2016-06-14_13-24-47,1465903487.36781,0,0,0,0,0,1,-1,4,-15,-7.220000,14.190000,158.050003,0,0,5,0,0,0
2016-06-14_13-24-47,1465903487.40511,0,0,0,0,0,0,-1,4,-15,-7.170000,14.220000,157.779999,0,0,5,0,0,0
2016-06-14_13-24-47,1465903487.48028,0,0,0,0,0,0,-1,4,-15,-7.160000,14.290000,157.529999,0,0,5,0,0,0
2016-06-14_13-24-47,1465903487.51760,0,0,0,0,0,0,-1,4,-15,-7.140000,14.410000,157.339996,0,0,5,0,0,0
2016-06-14_13-24-47,1465903487.55543,0,0,0,0,0,0,-1,4,-15,-7.110000,14.510000,157.229996,0,0,5,0,0,0
2016-06-14_13-24-47,1465903487.63028,0,0,0,0,0,0,-1,4,-15,-7.080000,14.570000,157.139999,0,0,5,0,0,0
2016-06-14_13-24-47,1465903487.66780,0,0,0,0,0,0,-1,4,-15,-7.140000,14.630000,156.960007,0,0,5,0,0,0
2016-06-14_13-24-47,1465903487.70510,0,0,0,0,0,0,-1,4,-15,-7.370000,14.660000,156.660004,0,0,5,0,0,0
2016-06-14_13-24-47,1465903487.78029,0,0,0,0,0,0,-1,4,-15,-7.720000,14.560000,156.399994,0,0,5,0,0,0
2016-06-14_13-24-47,1465903487.81761,0,0,0,0,0,0,0,4,-15,-7.910000,14.340000,156.080002,0,0,5,0,0,0
2016-06-14_13-24-47,1465903487.85532,0,0,0,0,0,0,0,4,-15,-8.060000,14.150000,155.679993,0,0,5,0,0,0
2016-06-14_13-24-47,1465903487.93030,0,0,0,0,0,0,0,4,-15,-8.190000,14.000000,155.339996,0,0,5,0,0,0
2016-06-14_13-24-47,1465903487.96791,0,0,0,0,0,0,0,4,-15,-8.150000,14.110000,155.199997,0,0,5,0,0,0
2016-06-14_13-24-48,1465903488.00517,0,0,0,0,0,0,-1,4,-15,-7.950000,14.400000,155.139999,0,0,5,0,0,0
2016-06-14_13-24-48,1465903488.08024,0,0,0,0,0,0,-1,4,-14,-7.670000,14.610000,154.789993,0,0,5,0,0,0
2016-06-14_13-24-48,1465903488.11772,0,0,0,0,0,0,-1,4,-15,-7.420000,14.620000,154.270004,0,0,5,0,0,0
2016-06-14_13-24-48,1465903488.15531,0,0,0,0,0,0,-1,5,-14,-7.010000,14.710000,153.759995,0,0,5,0,0,0
2016-06-14_13-24-48,1465903488.23027,0,0,0,0,0,0,-1,5,-15,-6.870000,14.950000,153.770004,0,0,5,0,0,0
2016-06-14_13-24-48,1465903488.26783,0,0,0,0,0,0,-1,4,-15,-6.660000,15.010000,154.130005,0,0,5,0,0,0
2016-06-14_13-24-48,1465903488.30510,0,0,0,0,0,0,-1,4,-15,-6.340000,15.000000,154.220001,0,0,5,0,0,0
2016-06-14_13-24-48,1465903488.38043,0,0,0,0,0,0,-1,4,-15,-6.170000,14.930000,153.850006,0,0,5,0,0,0
2016-06-14_13-24-48,1465903488.41764,0,0,0,0,0,0,-1,4,-15,-6.190000,14.730000,153.279999,0,0,5,0,0,0
2016-06-14_13-24-48,1465903488.45533,0,0,0,0,0,0,-1,4,-15,-6.150000,14.550000,152.839996,0,0,5,0,0,0
2016-06-14_13-24-48,1465903488.53026,0,0,0,0,0,0,-1,3,-15,-6.160000,14.450000,152.619995,0,0,5,0,0,0
2016-06-14_13-24-48,1465903488.56787,0,0,0,0,0,0,-1,3,-15,-6.040000,14.410000,152.220001,0,0,5,0,0,0
2016-06-14_13-24-48,1465903488.60512,0,0,0,0,0,0,-1,4,-15,-5.960000,14.380000,151.550003,0,0,5,0,0,0
2016-06-14_13-24-48,1465903488.68042,0,0,0,0,0,0,-1,4,-14,-6.050000,14.320000,151.000000,0,0,5,0,0,0
2016-06-14_13-24-48,1465903488.71763,0,0,0,0,0,0,0,4,-15,-6.440000,14.160000,150.830002,0,0,5,0,0,0
2016-06-14_13-24-48,1465903488.75535,0,0,0,0,0,0,-1,3,-15,-6.730000,13.830000,150.839996,0,0,5,0,0,0
2016-06-14_13-24-48,1465903488.83027,0,0,0,0,0,0,-1,4,-15,-6.610000,13.760000,150.539993,0,0,5,0,0,0
2016-06-14_13-24-48,1465903488.86783,0,0,0,0,0,0,-1,4,-15,-6.420000,13.930000,150.080002,0,0,5,0,0,0
2016-06-14_13-24-48,1465903488.90517,0,0,0,0,0,0,-1,3,-15,-6.300000,14.220000,149.770004,0,0,5,0,0,0
2016-06-14_13-24-48,1465903488.98043,0,0,0,0,0,0,-1,4,-15,-6.110000,14.000000,149.149994,0,0,5,0,0,0
2016-06-14_13-24-49,1465903489.01763,0,0,0,0,0,0,-1,5,-14,-5.860000,14.050000,148.190002,0,0,5,0,0,0
2016-06-14_13-24-49,1465903489.05535,0,0,0,0,0,0,-1,5,-15,-5.710000,14.240000,147.869995,0,0,5,0,0,0
2016-06-14_13-24-49,1465903489.13024,0,0,0,0,0,0,-1,4,-15,-5.620000,14.360000,148.360001,0,0,5,0,0,0
2016-06-14_13-24-49,1465903489.16785,0,0,0,0,0,0,-1,3,-15,-5.480000,14.300000,148.960007,0,0,5,0,0,0
2016-06-14_13-24-49,1465903489.20513,0,0,0,0,0,0,-1,3,-15,-5.290000,14.300000,149.110001,0,0,5,0,0,0
2016-06-14_13-24-49,1465903489.28045,0,0,0,0,0,0,-1,3,-15,-5.110000,14.250000,148.789993,0,0,5,0,0,0
2016-06-14_13-24-49,1465903489.31766,0,0,0,0,0,0,-2,3,-15,-5.150000,14.100000,148.350006,0,0,5,0,0,0
2016-06-14_13-24-49,1465903489.35535,0,0,0,0,0,0,-2,4,-15,-5.120000,14.050000,147.729996,0,0,5,0,0,0
2016-06-14_13-24-49,1465903489.43027,0,0,0,0,0,0,-1,4,-15,-5.370000,14.100000,147.369995,0,0,5,0,0,0
2016-06-14_13-24-49,1465903489.46784,0,0,0,0,0,0,-1,4,-15,-5.740000,13.880000,147.119995,0,0,5,0,0,0
2016-06-14_13-24-49,1465903489.50513,0,0,0,0,0,0,-1,4,-15,-5.930000,13.550000,146.839996,0,0,5,0,0,0
2016-06-14_13-24-49,1465903489.61714,0,0,0,0,0,0,0,4,-15,-6.000000,13.250000,146.639999,0,0,5,0,0,0
2016-06-14_13-24-49,1465903489.61925,0,0,0,0,1,0,-1,4,-15,-6.090000,13.000000,146.679993,0,0,5,0,0,0
2016-06-14_13-24-49,1465903489.65537,0,0,0,0,0,0,-1,4,-15,-6.100000,12.840000,146.809998,0,0,5,0,0,0
2016-06-14_13-24-49,1465903489.73023,0,0,0,0,0,0,-1,3,-15,-6.080000,12.690000,146.820007,0,0,5,0,0,0
2016-06-14_13-24-49,1465903489.76784,0,0,0,0,0,0,-1,3,-15,-6.150000,12.520000,146.710007,0,0,5,0,0,0
2016-06-14_13-24-49,1465903489.80519,0,0,0,0,0,0,-1,3,-15,-6.090000,12.430000,146.350006,0,0,5,0,0,0
2016-06-14_13-24-49,1465903489.88047,24,70,0,0,0,0,-1,4,-15,-6.220000,12.350000,145.949997,0,0,5,0,0,0
2016-06-14_13-24-49,1465903489.91776,0,0,0,0,0,0,0,4,-15,-6.470000,12.330000,145.869995,0,0,5,0,0,0
2016-06-14_13-24-49,1465903489.95523,0,0,0,0,0,0,0,4,-15,-6.570000,12.430000,146.229996,0,0,5,0,0,0
2016-06-14_13-24-50,1465903490.03030,0,0,0,0,0,0,-1,4,-15,-6.410000,12.410000,146.610001,0,0,5,0,0,0
2016-06-14_13-24-50,1465903490.06792,0,0,0,0,0,0,-1,3,-15,-6.280000,12.350000,146.789993,0,0,5,0,0,0
2016-06-14_13-24-50,1465903490.10515,0,0,0,0,0,0,-1,3,-15,-6.240000,12.090000,146.639999,0,0,5,0,0,0
2016-06-14_13-24-50,1465903490.18044,0,0,0,0,0,0,-1,4,-15,-6.260000,12.100000,146.429993,0,0,5,0,0,0
2016-06-14_13-24-50,1465903490.21765,0,0,0,0,0,0,-1,4,-15,-6.260000,12.140000,146.669998,0,0,5,0,0,0
2016-06-14_13-24-50,1465903490.25515,0,0,0,0,0,0,-1,3,-15,-6.060000,12.000000,147.070007,0,0,5,0,0,0
2016-06-14_13-24-50,1465903490.33030,0,0,0,0,0,0,-1,3,-15,-5.960000,11.950000,147.330002,0,0,5,0,0,0
2016-06-14_13-24-50,1465903490.36785,0,0,0,0,0,0,-1,4,-15,-5.980000,12.160000,147.389999,0,0,5,0,0,0
2016-06-14_13-24-50,1465903490.40515,0,0,0,0,0,0,-1,4,-15,-5.930000,12.270000,147.369995,0,0,5,0,0,0
2016-06-14_13-24-50,1465903490.48047,0,0,0,0,0,0,-1,3,-15,-5.960000,12.270000,147.380005,0,0,5,0,0,0
2016-06-14_13-24-50,1465903490.51765,0,0,0,0,0,0,-1,3,-15,-6.040000,12.340000,147.339996,0,0,5,0,0,0
2016-06-14_13-24-50,1465903490.55516,0,0,0,0,0,0,-1,3,-15,-6.150000,12.370000,147.300003,0,0,5,0,0,0
2016-06-14_13-24-50,1465903490.63031,0,0,0,0,0,0,-1,3,-15,-6.220000,12.440000,147.270004,0,0,5,0,0,0
2016-06-14_13-24-50,1465903490.66787,0,0,0,0,0,0,-1,3,-15,-6.180000,12.530000,147.190002,0,0,5,0,0,0
2016-06-14_13-24-50,1465903490.70545,0,0,0,0,0,0,-1,3,-15,-5.980000,12.720000,146.940002,0,0,5,0,0,0
2016-06-14_13-24-50,1465903490.78067,0,0,0,0,0,0,-1,3,-15,-5.880000,13.100000,146.639999,0,0,5,0,0,0
2016-06-14_13-24-50,1465903490.81775,0,0,0,0,0,0,-1,4,-15,-5.900000,13.770000,146.360001,0,0,5,0,0,0
2016-06-14_13-24-50,1465903490.85525,0,0,0,0,0,0,-1,4,-15,-5.860000,15.010000,146.309998,0,0,5,0,0,0
2016-06-14_13-24-50,1465903490.93033,0,0,0,0,0,0,-2,5,-14,-5.740000,16.860001,146.100006,0,0,5,0,0,0
2016-06-14_13-24-50,1465903490.96773,0,0,0,0,0,0,-2,5,-14,-5.540000,18.000000,145.809998,0,0,5,0,0,0
2016-06-14_13-24-51,1465903491.00535,0,0,0,0,0,0,-2,5,-14,-5.390000,18.510000,145.399994,0,0,5,0,0,0
2016-06-14_13-24-51,1465903491.08047,0,0,0,0,0,0,-2,4,-14,-5.520000,18.760000,144.919998,0,0,5,0,0,0
2016-06-14_13-24-51,1465903491.11766,0,0,0,0,0,0,-1,5,-14,-5.820000,18.980000,144.539993,0,0,5,0,0,0
2016-06-14_13-24-51,1465903491.15516,0,0,0,0,0,0,-2,5,-14,-6.160000,19.540001,144.490005,0,0,5,0,0,0
2016-06-14_13-24-51,1465903491.23052,0,0,0,0,0,0,-2,5,-14,-6.330000,19.990000,144.369995,0,0,5,0,0,0
2016-06-14_13-24-51,1465903491.26770,0,0,0,0,0,0,-1,6,-14,-6.490000,20.129999,144.169998,0,0,5,0,0,0
2016-06-14_13-24-51,1465903491.30537,0,0,0,0,0,0,-2,5,-14,-6.730000,20.309999,144.149994,0,0,5,0,0,0
2016-06-14_13-24-51,1465903491.38049,0,0,0,0,0,0,-2,6,-14,-6.810000,20.719999,144.190002,0,0,5,0,0,0
2016-06-14_13-24-51,1465903491.41766,0,0,0,0,0,0,-2,5,-14,-6.960000,21.709999,144.369995,0,0,5,0,0,0
2016-06-14_13-24-51,1465903491.45520,0,0,0,0,0,0,-2,6,-14,-7.220000,23.400000,144.529999,0,0,5,0,0,0
2016-06-14_13-24-51,1465903491.53024,0,0,0,0,0,0,-2,7,-13,-7.550000,25.309999,144.429993,0,0,5,0,0,0
2016-06-14_13-24-51,1465903491.56768,0,0,0,0,0,0,-2,8,-13,-7.690000,26.020000,144.169998,0,0,5,0,0,0
2016-06-14_13-24-51,1465903491.60544,0,0,0,0,0,0,-2,7,-13,-7.680000,26.090000,143.960007,0,0,5,0,0,0
2016-06-14_13-24-51,1465903491.68062,0,0,0,0,0,0,-2,6,-13,-7.750000,25.860001,143.779999,0,0,5,0,0,0
2016-06-14_13-24-51,1465903491.71787,0,0,0,0,0,0,-2,7,-14,-7.860000,25.440001,143.699997,0,0,5,0,0,0
2016-06-14_13-24-51,1465903491.75520,0,0,0,0,0,0,-2,6,-14,-7.950000,25.240000,143.759995,0,0,5,0,0,0
2016-06-14_13-24-51,1465903491.83023,0,0,0,0,0,0,-2,7,-14,-8.000000,25.370001,143.839996,0,0,5,0,0,0
2016-06-14_13-24-51,1465903491.86771,0,0,0,1,0,0,-2,6,-14,-7.960000,25.730000,143.809998,0,0,5,0,0,0
2016-06-14_13-24-51,1465903491.94276,0,0,0,0,0,0,-2,7,-13,-7.900000,26.209999,143.669998,0,0,5,0,0,0
2016-06-14_13-24-51,1465903491.98053,0,0,0,0,0,0,-2,7,-13,-7.910000,26.670000,143.619995,0,0,5,0,0,0
2016-06-14_13-24-52,1465903492.01789,0,0,0,0,0,0,-2,7,-13,-7.910000,27.080000,143.830002,0,0,5,0,0,0
2016-06-14_13-24-52,1465903492.05521,0,0,0,0,0,0,-2,7,-13,-7.910000,27.260000,144.100006,0,0,5,0,0,0
2016-06-14_13-24-52,1465903492.13025,0,0,0,1,0,0,-2,7,-13,-7.970000,27.480000,144.199997,0,0,5,0,0,0
2016-06-14_13-24-52,1465903492.16769,0,0,0,0,0,0,-2,7,-13,-8.050000,27.750000,144.149994,0,0,5,0,0,0
2016-06-14_13-24-52,1465903492.20540,0,0,0,0,0,0,-2,7,-13,-8.060000,28.100000,144.039993,0,0,5,0,0,0
2016-06-14_13-24-52,1465903492.28037,0,0,0,0,0,0,-2,7,-13,-8.080000,28.299999,144.020004,0,0,5,0,0,0
2016-06-14_13-24-52,1465903492.31791,0,0,0,0,0,0,-2,7,-13,-8.140000,28.469999,144.070007,0,0,5,0,0,0
2016-06-14_13-24-52,1465903492.35520,0,0,0,0,0,0,-2,7,-13,-8.210000,28.620001,144.190002,0,0,5,0,0,0
2016-06-14_13-24-52,1465903492.43024,0,0,0,0,0,0,-2,7,-13,-8.270000,28.790001,144.350006,0,0,5,0,0,0
2016-06-14_13-24-52,1465903492.46769,0,0,0,0,0,0,-2,7,-13,-8.280000,29.080000,144.520004,0,0,5,0,0,0
2016-06-14_13-24-52,1465903492.50545,0,0,0,0,0,0,-2,7,-13,-8.340000,29.680000,144.729996,0,0,5,0,0,0
2016-06-14_13-24-52,1465903492.58028,0,0,0,0,0,0,-3,8,-13,-8.350000,30.480000,144.929993,0,0,5,0,0,0
2016-06-14_13-24-52,1465903492.61790,0,0,0,0,0,0,-3,8,-13,-8.230000,30.959999,145.070007,0,0,5,0,0,0
2016-06-14_13-24-52,1465903492.65521,0,0,0,0,0,0,-3,8,-13,-8.080000,31.209999,145.130005,0,0,5,0,0,0
2016-06-14_13-24-52,1465903492.73023,0,0,0,0,0,0,-3,8,-13,-7.970000,31.270000,145.110001,0,0,5,0,0,0
2016-06-14_13-24-52,1465903492.76770,0,0,0,0,0,0,-3,8,-13,-7.930000,31.209999,145.080002,0,0,5,0,0,0
2016-06-14_13-24-52,1465903492.84275,0,0,0,0,0,0,-3,8,-13,-7.930000,31.040001,145.029999,0,0,5,0,0,0
2016-06-14_13-24-52,1465903492.88032,0,0,1,0,0,0,-3,8,-13,-7.950000,30.910000,145.000000,0,0,5,0,0,0
2016-06-14_13-24-52,1465903492.95469,0,0,0,0,0,0,-3,8,-13,-7.960000,30.870001,145.020004,0,0,5,0,0,0
2016-06-14_13-24-52,1465903492.95690,0,0,0,0,0,0,-3,7,-13,-7.990000,30.889999,145.029999,0,0,5,0,0,0
2016-06-14_13-24-53,1465903493.03051,0,0,0,0,0,0,-3,8,-13,-8.040000,30.920000,145.020004,0,0,5,0,0,0
2016-06-14_13-24-53,1465903493.06774,0,0,0,0,0,0,-3,8,-12,-8.070000,31.110001,145.039993,0,0,5,0,0,0
2016-06-14_13-24-53,1465903493.10543,0,0,0,0,0,0,-3,8,-13,-8.150000,31.330000,145.220001,0,0,5,0,0,0
2016-06-14_13-24-53,1465903493.18030,0,0,0,0,0,0,-3,8,-13,-8.180000,31.430000,145.389999,0,0,5,0,0,0
2016-06-14_13-24-53,1465903493.21790,0,0,0,0,0,0,-3,8,-13,-8.170000,31.450001,145.440002,0,0,5,0,0,0
2016-06-14_13-24-53,1465903493.25523,0,0,0,0,0,0,-3,8,-13,-8.140000,31.350000,145.330002,0,0,5,0,0,0
2016-06-14_13-24-53,1465903493.33054,0,0,0,0,0,0,-3,8,-13,-8.070000,30.980000,145.139999,0,0,5,0,0,0
2016-06-14_13-24-53,1465903493.36771,0,0,0,1,0,0,-3,8,-13,-7.940000,30.400000,144.960007,0,0,5,0,0,0
2016-06-14_13-24-53,1465903493.40544,0,0,0,0,0,0,-3,8,-13,-7.780000,29.760000,144.940002,0,0,5,0,0,0
2016-06-14_13-24-53,1465903493.48034,0,0,0,0,0,0,-3,7,-13,-7.650000,29.020000,145.130005,0,0,5,0,0,0
2016-06-14_13-24-53,1465903493.51798,0,0,0,0,0,0,-3,7,-13,-7.550000,28.150000,145.350006,0,0,5,0,0,0
2016-06-14_13-24-53,1465903493.55528,0,0,0,0,0,0,-2,7,-13,-7.580000,26.910000,145.649994,0,0,5,0,0,0
2016-06-14_13-24-53,1465903493.70484,0,0,0,1,0,0,-2,6,-14,-7.550000,25.320000,146.000000,0,0,5,0,0,0
2016-06-14_13-24-53,1465903493.70731,0,0,0,0,0,0,-2,6,-14,-7.430000,23.980000,146.289993,0,0,5,0,0,0
2016-06-14_13-24-53,1465903493.70778,0,0,0,0,0,0,-2,5,-14,-7.420000,22.940001,146.550003,0,0,5,0,0,0
2016-06-14_13-24-53,1465903493.78040,0,0,0,0,0,0,-2,6,-14,-7.380000,22.219999,146.770004,0,0,5,0,0,0
2016-06-14_13-24-53,1465903493.81798,0,0,0,0,0,0,-2,5,-14,-7.320000,21.850000,146.919998,0,0,5,0,0,0
2016-06-14_13-24-53,1465903493.85518,150,85,0,0,0,0,-1,5,-14,-7.330000,21.320000,146.770004,0,0,5,0,0,0
2016-06-14_13-24-53,1465903493.93048,0,0,0,0,0,0,-1,5,-14,-7.740000,20.370001,146.419998,0,0,5,0,0,0
2016-06-14_13-24-53,1465903493.96799,0,0,0,0,0,0,-1,5,-15,-8.160000,19.209999,145.789993,0,0,5,0,0,0
2016-06-14_13-24-54,1465903494.00543,0,0,0,0,0,0,-1,5,-15,-8.260000,18.030001,145.240005,0,0,5,0,0,0
2016-06-14_13-24-54,1465903494.08034,0,0,0,0,0,0,-1,5,-14,-8.190000,17.559999,145.149994,0,0,5,0,0,0
2016-06-14_13-24-54,1465903494.11792,0,0,0,0,0,0,-1,4,-15,-8.110000,17.590000,145.440002,0,0,5,0,0,0
2016-06-14_13-24-54,1465903494.15523,0,0,0,0,0,0,-2,4,-15,-7.700000,17.940001,145.380005,0,0,5,0,0,0
2016-06-14_13-24-54,1465903494.23057,0,0,0,0,0,0,-2,5,-14,-7.330000,18.540001,144.860001,0,0,5,0,0,0
2016-06-14_13-24-54,1465903494.26767,0,0,0,0,0,0,-2,6,-13,-7.280000,18.910000,144.259995,0,0,5,0,0,0
2016-06-14_13-24-54,1465903494.30552,0,0,0,0,0,0,-1,6,-14,-7.670000,18.680000,144.360001,0,0,5,0,0,0
2016-06-14_13-24-54,1465903494.38035,0,0,0,0,1,0,-1,5,-15,-7.860000,18.350000,144.970001,0,0,5,0,0,0
2016-06-14_13-24-54,1465903494.41793,0,0,0,0,0,0,-2,4,-15,-7.470000,18.129999,145.199997,0,0,5,0,0,0
2016-06-14_13-24-54,1465903494.45524,0,0,0,0,0,0,-2,4,-14,-7.140000,18.250000,145.100006,0,0,5,0,0,0
2016-06-14_13-24-54,1465903494.53061,0,0,0,0,0,0,-1,5,-14,-7.250000,18.360001,144.960007,0,0,5,0,0,0
2016-06-14_13-24-54,1465903494.56774,0,0,0,0,0,0,-1,5,-15,-7.530000,18.370001,144.960007,0,0,5,0,0,0
2016-06-14_13-24-54,1465903494.60526,0,0,0,1,0,0,-1,5,-14,-7.610000,18.450001,145.059998,0,0,5,0,0,0
2016-06-14_13-24-54,1465903494.68035,0,0,0,0,0,0,-1,5,-15,-7.550000,18.490000,145.240005,0,0,5,0,0,0
2016-06-14_13-24-54,1465903494.71795,0,0,0,0,0,0,-1,5,-14,-7.420000,18.459999,145.169998,0,0,5,0,0,0
2016-06-14_13-24-54,1465903494.75562,0,0,0,0,0,0,-1,5,-14,-7.410000,18.330000,144.919998,0,0,5,0,0,0
2016-06-14_13-24-54,1465903494.83061,0,0,0,0,0,0,-1,5,-15,-7.520000,18.219999,144.850006,0,0,5,0,0,0
2016-06-14_13-24-54,1465903494.86774,0,0,0,0,0,0,-1,5,-14,-7.500000,18.080000,144.880005,0,0,5,0,0,0
2016-06-14_13-24-54,1465903494.90524,0,0,0,0,0,0,-1,5,-15,-7.470000,17.959999,144.889999,0,0,5,0,0,0
2016-06-14_13-24-54,1465903494.98035,0,0,0,0,0,0,-2,4,-14,-7.310000,17.910000,144.630005,0,0,5,0,0,0
2016-06-14_13-24-55,1465903495.01816,0,0,0,0,0,0,-2,5,-14,-7.280000,17.750000,144.139999,0,0,5,0,0,0
2016-06-14_13-24-55,1465903495.05524,0,0,0,0,0,0,-1,5,-14,-7.470000,17.730000,143.619995,0,0,5,0,0,0
2016-06-14_13-24-55,1465903495.13055,0,0,0,0,0,0,-1,5,-15,-7.660000,17.610001,143.220001,0,0,5,0,0,0
2016-06-14_13-24-55,1465903495.16775,0,0,0,0,0,0,-1,5,-14,-7.600000,17.309999,142.830002,0,0,5,0,0,0
2016-06-14_13-24-55,1465903495.20526,0,0,0,0,0,0,-1,4,-14,-7.550000,17.080000,142.520004,0,0,5,0,0,0
2016-06-14_13-24-55,1465903495.28037,0,0,0,0,0,0,-1,5,-14,-7.600000,16.840000,142.309998,0,0,5,0,0,0
2016-06-14_13-24-55,1465903495.31797,0,0,0,0,0,0,-1,5,-14,-7.740000,16.660000,142.210007,0,0,5,0,0,0
2016-06-14_13-24-55,1465903495.35546,0,0,0,1,0,0,-1,5,-15,-7.910000,16.490000,142.399994,0,0,5,0,0,0
2016-06-14_13-24-55,1465903495.43051,0,0,0,0,0,0,-1,4,-15,-7.830000,16.290001,142.610001,0,0,5,0,0,0
2016-06-14_13-24-55,1465903495.46776,0,0,0,0,0,0,-2,4,-15,-7.540000,16.070000,142.509995,0,0,5,0,0,0
2016-06-14_13-24-55,1465903495.50525,0,0,0,0,0,0,-1,4,-14,-7.300000,15.860000,142.220001,0,0,5,0,0,0
2016-06-14_13-24-55,1465903495.58025,0,0,0,0,0,0,-1,4,-14,-7.470000,15.490000,142.119995,0,0,5,0,0,0
2016-06-14_13-24-55,1465903495.61801,0,0,0,0,0,0,-1,4,-14,-7.580000,15.280000,142.020004,0,0,5,0,0,0
2016-06-14_13-24-55,1465903495.65547,0,0,0,0,0,0,-1,5,-15,-7.530000,15.500000,142.089996,0,0,5,0,0,0
2016-06-14_13-24-55,1465903495.73050,0,0,0,0,0,0,-1,5,-14,-7.260000,15.960000,142.300003,0,0,5,0,0,0
2016-06-14_13-24-55,1465903495.76776,0,0,0,0,0,0,-1,4,-15,-7.100000,16.190001,142.699997,0,0,5,0,0,0
2016-06-14_13-24-55,1465903495.80547,0,0,0,0,0,0,-1,5,-14,-6.880000,16.240000,143.050003,0,0,5,0,0,0
2016-06-14_13-24-55,1465903495.88033,0,0,0,0,0,0,-2,4,-15,-6.800000,16.219999,143.600006,0,0,5,0,0,0
2016-06-14_13-24-55,1465903495.91780,0,0,0,0,0,0,-2,4,-14,-6.420000,16.480000,144.059998,0,0,5,0,0,0
2016-06-14_13-24-55,1465903495.95546,0,0,0,0,0,0,-1,4,-14,-6.210000,16.510000,144.399994,0,0,5,0,0,0
2016-06-14_13-24-56,1465903496.03058,0,0,0,0,0,0,-1,4,-15,-6.260000,16.230000,144.520004,0,0,5,0,0,0
2016-06-14_13-24-56,1465903496.06775,0,0,0,0,0,0,-2,4,-15,-6.220000,16.120001,144.580002,0,0,5,0,0,0
2016-06-14_13-24-56,1465903496.10527,0,0,0,0,0,0,-2,4,-15,-5.910000,16.070000,144.619995,0,0,5,0,0,0
2016-06-14_13-24-56,1465903496.18036,0,0,0,0,0,0,-2,4,-14,-5.640000,16.010000,144.509995,0,0,5,0,0,0
2016-06-14_13-24-56,1465903496.21785,0,0,0,0,0,0,-2,4,-14,-5.560000,15.930000,144.270004,0,0,5,0,0,0
2016-06-14_13-24-56,1465903496.25548,0,0,0,0,0,0,-2,4,-15,-5.660000,15.880000,144.029999,0,0,5,0,0,0
2016-06-14_13-24-56,1465903496.33056,0,0,0,0,0,0,-2,4,-15,-5.760000,15.810000,143.759995,0,0,5,0,0,0
2016-06-14_13-24-56,1465903496.36777,0,0,0,0,0,0,-2,4,-14,-5.900000,15.740000,143.610001,0,0,5,0,0,0
2016-06-14_13-24-56,1465903496.40530,0,0,0,0,0,0,-1,4,-15,-6.130000,15.540000,143.649994,0,0,5,0,0,0
2016-06-14_13-24-56,1465903496.48042,0,0,0,0,0,0,-1,4,-15,-6.370000,15.330000,143.789993,0,0,5,0,0,0
2016-06-14_13-24-56,1465903496.51781,0,0,0,0,0,0,-1,4,-15,-6.550000,15.240000,143.889999,0,0,5,0,0,0
2016-06-14_13-24-56,1465903496.55546,0,0,0,0,0,0,-1,4,-15,-6.650000,15.200000,143.929993,0,0,5,0,0,0
2016-06-14_13-24-56,1465903496.66727,150,70,0,0,0,0,-1,4,-15,-6.760000,15.220000,143.910004,0,0,5,0,0,0
2016-06-14_13-24-56,1465903496.66945,0,0,0,0,0,0,-1,4,-15,-6.860000,15.140000,143.860001,0,0,5,0,0,0
2016-06-14_13-24-56,1465903496.70529,0,0,0,0,0,0,-1,4,-15,-6.840000,15.020000,143.699997,0,0,5,0,0,0
2016-06-14_13-24-56,1465903496.78040,0,0,0,0,0,0,-1,4,-15,-6.910000,14.760000,143.470001,0,0,5,0,0,0
2016-06-14_13-24-56,1465903496.81783,0,0,0,0,0,0,-1,4,-15,-6.900000,14.590000,143.130005,0,0,5,0,0,0
2016-06-14_13-24-56,1465903496.85547,0,0,0,0,0,0,-2,3,-15,-6.720000,14.580000,142.669998,0,0,5,0,0,0
2016-06-14_13-24-56,1465903496.93054,0,0,0,0,0,0,-1,4,-14,-6.440000,14.670000,141.899994,0,0,5,0,0,0
2016-06-14_13-24-56,1465903496.96779,0,0,0,0,0,0,-1,4,-15,-6.670000,14.590000,141.389999,0,0,5,0,0,0
2016-06-14_13-24-57,1465903497.00530,0,0,0,0,0,0,-1,4,-15,-7.020000,14.500000,141.270004,0,0,5,0,0,0
2016-06-14_13-24-57,1465903497.08035,0,0,0,0,0,0,-1,4,-15,-7.210000,14.520000,141.270004,0,0,5,0,0,0
2016-06-14_13-24-57,1465903497.11783,0,0,0,0,0,0,-1,4,-15,-7.240000,14.700000,141.229996,0,0,5,0,0,0
2016-06-14_13-24-57,1465903497.15570,0,0,0,0,0,0,-1,4,-15,-7.260000,14.800000,141.279999,0,0,5,0,0,0
2016-06-14_13-24-57,1465903497.23060,0,0,0,0,0,0,-1,4,-14,-7.230000,14.740000,141.339996,0,0,5,0,0,0
2016-06-14_13-24-57,1465903497.26779,0,0,0,0,0,0,-1,4,-15,-7.330000,14.680000,141.509995,0,0,5,0,0,0
2016-06-14_13-24-57,1465903497.30528,0,0,0,0,0,0,-1,4,-15,-7.280000,14.550000,141.619995,0,0,5,0,0,0
2016-06-14_13-24-57,1465903497.38036,0,0,0,0,0,0,-1,4,-15,-7.090000,14.480000,141.470001,0,0,5,0,0,0
2016-06-14_13-24-57,1465903497.41785,0,0,0,0,0,0,-1,4,-15,-7.130000,14.550000,141.300003,0,0,5,0,0,0
2016-06-14_13-24-57,1465903497.45547,0,0,0,0,0,0,-1,4,-15,-7.110000,14.530000,140.940002,0,0,5,0,0,0
2016-06-14_13-24-57,1465903497.53054,0,0,0,0,0,0,-1,4,-15,-7.110000,14.490000,140.570007,0,0,5,0,0,0
2016-06-14_13-24-57,1465903497.56780,0,0,0,0,0,0,-1,4,-14,-7.180000,14.600000,140.500000,0,0,5,0,0,0
2016-06-14_13-24-57,1465903497.60531,0,0,0,0,0,0,-1,4,-15,-7.190000,14.650000,140.610001,0,0,5,0,0,0
2016-06-14_13-24-57,1465903497.68037,0,0,0,0,0,0,-1,4,-15,-7.170000,14.550000,140.630005,0,0,5,0,0,0
2016-06-14_13-24-57,1465903497.71784,0,0,0,0,0,0,-1,4,-15,-7.330000,14.390000,140.639999,0,0,5,0,0,0
2016-06-14_13-24-57,1465903497.75550,0,0,0,0,0,0,-1,4,-15,-7.540000,14.250000,140.779999,0,0,5,0,0,0
2016-06-14_13-24-57,1465903497.83064,0,0,0,0,0,0,-1,4,-14,-7.710000,14.140000,140.970001,0,0,5,0,0,0
2016-06-14_13-24-57,1465903497.86780,0,0,0,1,0,0,-1,4,-15,-7.760000,13.430000,141.179993,0,0,5,0,0,0
2016-06-14_13-24-57,1465903497.90535,0,0,0,0,0,0,-1,3,-15,-7.640000,12.860000,141.220001,0,0,5,0,0,0
2016-06-14_13-24-57,1465903497.98055,0,0,0,0,0,0,0,3,-15,-7.570000,12.790000,141.130005,0,0,5,0,0,0
2016-06-14_13-24-58,1465903498.01792,0,0,0,0,0,0,-1,4,-15,-7.660000,13.110000,141.070007,0,0,5,0,0,0
2016-06-14_13-24-58,1465903498.05547,0,0,0,0,0,0,-1,4,-15,-7.670000,13.420000,140.889999,0,0,5,0,0,0
2016-06-14_13-24-58,1465903498.13061,0,0,0,1,0,0,-1,4,-15,-7.610000,13.540000,140.509995,0,0,5,0,0,0
2016-06-14_13-24-58,1465903498.20479,0,0,0,0,0,0,-1,4,-15,-7.660000,13.560000,140.059998,0,0,5,0,0,0
2016-06-14_13-24-58,1465903498.20703,0,0,0,0,0,0,0,4,-15,-7.750000,13.520000,139.789993,0,0,5,0,0,0
2016-06-14_13-24-58,1465903498.28039,0,0,0,0,0,0,0,4,-15,-7.810000,13.390000,139.910004,0,0,5,0,0,0
2016-06-14_13-24-58,1465903498.31791,0,0,0,0,0,0,0,3,-15,-7.760000,13.310000,140.279999,0,0,5,0,0,0
2016-06-14_13-24-58,1465903498.35550,0,0,0,0,0,0,-1,3,-15,-7.540000,13.330000,140.339996,0,0,5,0,0,0
2016-06-14_13-24-58,1465903498.43067,0,0,0,0,0,0,-1,4,-15,-7.460000,13.440000,139.929993,0,0,5,0,0,0
2016-06-14_13-24-58,1465903498.46780,0,0,0,0,0,0,-1,4,-15,-7.430000,13.510000,139.240005,0,0,5,0,0,0
2016-06-14_13-24-58,1465903498.50537,0,0,0,0,0,0,-1,4,-15,-7.340000,13.540000,138.610001,0,0,5,0,0,0
2016-06-14_13-24-58,1465903498.58040,0,0,0,0,0,0,-1,4,-15,-7.300000,13.460000,138.259995,0,0,5,0,0,0
2016-06-14_13-24-58,1465903498.61787,0,0,0,0,1,0,-1,4,-15,-7.360000,13.440000,138.289993,0,0,5,0,0,0
2016-06-14_13-24-58,1465903498.65551,0,0,0,0,0,0,-1,4,-15,-7.420000,13.520000,138.509995,0,0,5,0,0,0
2016-06-14_13-24-58,1465903498.73065,0,0,0,0,0,0,-1,4,-15,-7.450000,13.620000,138.639999,0,0,5,0,0,0
2016-06-14_13-24-58,1465903498.76780,0,0,0,0,0,0,-1,4,-15,-7.480000,13.660000,138.580002,0,0,5,0,0,0
2016-06-14_13-24-58,1465903498.80542,0,0,0,0,0,0,-1,4,-15,-7.530000,13.870000,138.350006,0,0,5,0,0,0
2016-06-14_13-24-58,1465903498.88051,0,0,0,0,0,0,-1,4,-15,-7.610000,14.320000,138.059998,0,0,5,0,0,0
2016-06-14_13-24-58,1465903498.91794,0,0,0,0,0,0,-1,4,-15,-7.680000,14.730000,137.750000,0,0,5,0,0,0
2016-06-14_13-24-58,1465903498.95550,0,0,0,0,0,0,-1,5,-15,-7.840000,14.970000,137.460007,0,0,5,0,0,0
2016-06-14_13-24-59,1465903499.03062,0,0,0,0,0,0,-1,4,-15,-8.110000,14.900000,137.199997,0,0,5,0,0,0
2016-06-14_13-24-59,1465903499.06782,0,0,0,0,0,0,-1,4,-15,-8.410000,14.680000,136.880005,0,0,5,0,0,0
2016-06-14_13-24-59,1465903499.10534,0,0,0,0,0,0,0,4,-15,-8.730000,14.420000,136.389999,0,0,5,0,0,0
2016-06-14_13-24-59,1465903499.18028,0,0,0,0,0,0,0,4,-15,-9.020000,14.120000,135.610001,0,0,5,0,0,0
2016-06-14_13-24-59,1465903499.21786,0,0,0,0,0,0,0,3,-15,-9.280000,13.540000,134.119995,0,0,5,0,0,0
2016-06-14_13-24-59,1465903499.25552,0,0,0,0,0,0,0,2,-15,-9.800000,12.580000,131.080002,0,0,5,0,0,0
2016-06-14_13-24-59,1465903499.33065,0,0,0,0,0,0,0,3,-15,-10.690000,11.250000,126.120003,0,0,5,0,0,0
2016-06-14_13-24-59,1465903499.40481,0,0,0,0,0,0,1,3,-15,-11.720000,9.730000,119.949997,0,0,5,0,0,0
2016-06-14_13-24-59,1465903499.40699,0,0,0,0,0,0,1,5,-15,-12.530000,8.080000,113.129997,0,0,5,0,0,0
2016-06-14_13-24-59,1465903499.48049,0,0,0,0,0,0,2,5,-15,-13.230000,6.770000,107.000000,0,0,5,0,0,0
2016-06-14_13-24-59,1465903499.51795,0,0,0,0,0,0,2,5,-15,-13.550000,5.860000,102.279999,0,0,5,0,0,0
2016-06-14_13-24-59,1465903499.55556,0,0,0,0,0,0,1,5,-15,-13.620000,5.310000,99.269997,0,0,5,0,0,0
2016-06-14_13-24-59,1465903499.63065,150,48,0,0,0,0,1,4,-15,-13.340000,4.910000,97.550003,0,0,5,0,0,0
2016-06-14_13-24-59,1465903499.66782,0,0,0,0,0,0,1,4,-15,-12.920000,4.640000,96.620003,0,0,5,0,0,0
2016-06-14_13-24-59,1465903499.70535,0,0,0,0,0,0,1,3,-15,-12.610000,4.520000,96.209999,0,0,5,0,0,0
2016-06-14_13-24-59,1465903499.81728,0,0,0,0,0,0,1,3,-15,-12.350000,4.450000,96.120003,0,0,5,0,0,0
2016-06-14_13-24-59,1465903499.81936,0,0,0,0,0,0,1,3,-15,-12.110000,4.470000,96.330002,0,0,5,0,0,0
2016-06-14_13-24-59,1465903499.85555,0,0,0,0,0,0,1,3,-15,-11.840000,4.510000,96.709999,0,0,5,0,0,0
2016-06-14_13-24-59,1465903499.93069,0,0,0,0,0,0,1,3,-15,-11.580000,4.550000,97.139999,0,0,5,0,0,0
2016-06-14_13-24-59,1465903499.96783,0,0,0,0,0,0,1,3,-15,-11.340000,4.590000,97.589996,0,0,5,0,0,0
2016-06-14_13-25-00,1465903500.00932,0,0,0,0,0,0,1,3,-15,-11.060000,4.670000,97.949997,0,0,5,0,0,0
2016-06-14_13-25-00,1465903500.08064,0,0,0,0,0,0,1,3,-15,-10.880000,4.830000,98.309998,0,0,5,0,0,0
2016-06-14_13-25-00,1465903500.11790,0,0,0,0,0,0,1,3,-15,-10.800000,5.000000,98.680000,0,0,5,0,0,0
2016-06-14_13-25-00,1465903500.15527,0,0,0,0,0,0,1,3,-15,-10.780000,5.090000,99.000000,0,0,5,0,0,0
2016-06-14_13-25-00,1465903500.23067,0,0,0,0,0,0,1,3,-15,-10.700000,5.120000,99.220001,0,0,5,0,0,0
2016-06-14_13-25-00,1465903500.26784,0,0,0,0,0,0,1,3,-15,-10.570000,5.080000,99.349998,0,0,5,0,0,0
2016-06-14_13-25-00,1465903500.30537,0,0,0,0,0,0,1,3,-15,-10.420000,4.990000,99.360001,0,0,5,0,0,0
2016-06-14_13-25-00,1465903500.38051,0,0,0,1,0,0,1,3,-15,-10.300000,4.850000,99.349998,0,0,5,0,0,0
2016-06-14_13-25-00,1465903500.41787,0,0,0,0,0,0,1,3,-15,-10.200000,4.820000,99.410004,0,0,5,0,0,0
2016-06-14_13-25-00,1465903500.45555,0,0,0,0,0,0,1,3,-15,-10.130000,4.820000,99.610001,0,0,5,0,0,0
2016-06-14_13-25-00,1465903500.53082,0,0,0,0,0,0,1,3,-15,-10.000000,4.780000,99.959999,0,0,5,0,0,0
2016-06-14_13-25-00,1465903500.56784,0,0,0,0,0,0,1,3,-15,-9.670000,4.510000,100.489998,0,0,5,0,0,0
2016-06-14_13-25-00,1465903500.60537,0,0,0,0,0,0,0,3,-15,-9.240000,4.240000,101.440002,0,0,5,0,0,0
2016-06-14_13-25-00,1465903500.68052,0,0,0,0,0,0,0,3,-15,-8.780000,4.200000,103.029999,0,0,5,0,0,0
2016-06-14_13-25-00,1465903500.75484,0,0,0,0,0,0,0,3,-15,-8.330000,4.360000,105.339996,0,0,5,0,0,0
2016-06-14_13-25-00,1465903500.75688,0,0,0,0,0,0,0,2,-15,-7.760000,4.550000,107.980003,0,0,5,0,0,0
2016-06-14_13-25-00,1465903500.86747,0,0,0,0,0,0,0,2,-15,-7.010000,4.720000,110.419998,0,0,5,0,0,0
2016-06-14_13-25-00,1465903500.86999,0,0,0,0,0,0,0,2,-15,-6.360000,4.600000,112.489998,0,0,5,0,0,0
2016-06-14_13-25-00,1465903500.90536,0,0,0,0,0,0,0,1,-15,-5.890000,4.190000,114.250000,0,0,5,0,0,0
2016-06-14_13-25-00,1465903500.98053,0,0,0,0,0,0,0,1,-15,-5.540000,3.780000,115.680000,0,0,5,0,0,0
2016-06-14_13-25-01,1465903501.01790,0,0,0,0,0,0,0,1,-15,-5.410000,3.410000,116.910004,0,0,5,0,0,0
2016-06-14_13-25-01,1465903501.05555,0,0,0,0,0,0,0,1,-16,-5.510000,3.470000,117.970001,0,0,5,0,0,0
2016-06-14_13-25-01,1465903501.13059,0,0,0,0,0,0,0,1,-15,-5.770000,3.980000,118.849998,0,0,5,0,0,0
2016-06-14_13-25-01,1465903501.16788,0,0,0,0,0,0,0,2,-15,-5.890000,4.080000,119.669998,0,0,5,0,0,0
2016-06-14_13-25-01,1465903501.20539,0,0,0,0,0,0,0,2,-16,-5.740000,3.970000,120.519997,0,0,5,0,0,0
2016-06-14_13-25-01,1465903501.28048,0,0,0,0,0,0,0,1,-15,-5.520000,3.870000,121.400002,0,0,5,0,0,0
2016-06-14_13-25-01,1465903501.31789,0,0,0,0,0,0,0,1,-15,-5.430000,3.820000,122.309998,0,0,5,0,0,0
2016-06-14_13-25-01,1465903501.35556,0,0,0,0,0,0,0,1,-15,-5.500000,3.770000,123.269997,0,0,5,0,0,0
2016-06-14_13-25-01,1465903501.43070,0,0,0,0,0,0,0,1,-15,-5.720000,3.990000,124.239998,0,0,5,0,0,0
2016-06-14_13-25-01,1465903501.46786,0,0,0,0,0,0,0,2,-15,-5.980000,4.560000,125.239998,0,0,5,0,0,0
2016-06-14_13-25-01,1465903501.50538,0,0,0,0,0,0,0,1,-15,-6.240000,5.240000,126.260002,0,0,5,0,0,0
2016-06-14_13-25-01,1465903501.58046,0,0,0,0,0,0,0,1,-15,-6.420000,5.950000,127.000000,0,0,5,0,0,0
2016-06-14_13-25-01,1465903501.61790,0,0,0,1,1,0,0,2,-15,-6.510000,6.560000,127.279999,0,0,5,0,0,0
2016-06-14_13-25-01,1465903501.65537,0,0,0,0,0,0,0,2,-15,-6.610000,6.840000,127.410004,0,0,5,0,0,0
2016-06-14_13-25-01,1465903501.73065,0,0,0,0,0,0,0,3,-15,-6.710000,6.940000,127.599998,0,0,5,0,0,0
2016-06-14_13-25-01,1465903501.76787,0,0,0,0,0,0,0,2,-15,-6.680000,7.110000,128.139999,0,0,5,0,0,0
2016-06-14_13-25-01,1465903501.80540,0,0,0,0,0,0,0,2,-15,-6.600000,7.350000,128.979996,0,0,5,0,0,0
2016-06-14_13-25-01,1465903501.88048,0,0,0,0,0,0,0,2,-15,-6.550000,7.460000,129.789993,0,0,5,0,0,0
2016-06-14_13-25-01,1465903501.91788,0,0,0,0,0,0,0,2,-15,-6.530000,7.590000,130.429993,0,0,5,0,0,0
2016-06-14_13-25-01,1465903501.95558,0,0,0,0,0,0,0,2,-15,-6.630000,7.800000,130.860001,0,0,5,0,0,0
2016-06-14_13-25-02,1465903502.03066,0,0,0,0,0,0,0,3,-15,-6.730000,8.000000,131.259995,0,0,5,0,0,0
2016-06-14_13-25-02,1465903502.06781,0,0,0,0,0,0,0,3,-15,-6.780000,8.170000,131.720001,0,0,5,0,0,0
2016-06-14_13-25-02,1465903502.10538,0,0,0,1,0,0,0,3,-15,-6.790000,8.340000,132.470001,0,0,5,0,0,0
2016-06-14_13-25-02,1465903502.18049,0,0,0,0,0,0,0,3,-15,-6.810000,8.560000,133.940002,0,0,5,0,0,0
2016-06-14_13-25-02,1465903502.21790,0,0,0,0,0,0,0,3,-15,-6.700000,8.810000,136.500000,0,0,5,0,0,0
2016-06-14_13-25-02,1465903502.25558,0,0,0,0,0,0,0,2,-15,-6.370000,9.130000,139.619995,0,0,5,0,0,0
2016-06-14_13-25-02,1465903502.33052,0,0,0,0,0,0,0,1,-15,-6.080000,9.460000,142.259995,0,0,5,0,0,0
2016-06-14_13-25-02,1465903502.36807,160,59,0,0,0,0,0,2,-15,-5.920000,9.710000,143.800003,0,0,5,0,0,0
2016-06-14_13-25-02,1465903502.40540,0,0,0,0,0,0,0,2,-15,-5.850000,9.850000,144.630005,0,0,5,0,0,0
2016-06-14_13-25-02,1465903502.51736,0,0,0,0,0,0,-1,3,-15,-5.710000,10.070000,145.240005,0,0,5,0,0,0
2016-06-14_13-25-02,1465903502.59269,0,0,0,0,0,0,-1,3,-15,-5.630000,10.480000,146.020004,0,0,5,0,0,0
2016-06-14_13-25-02,1465903502.59473,0,0,0,0,0,0,-1,3,-15,-5.500000,11.100000,147.039993,0,0,5,0,0,0
2016-06-14_13-25-02,1465903502.63053,0,0,0,0,0,0,-1,3,-15,-5.320000,11.680000,148.050003,0,0,5,0,0,0
2016-06-14_13-25-02,1465903502.66809,0,0,0,0,0,0,-1,3,-15,-5.220000,12.140000,148.910004,0,0,5,0,0,0
2016-06-14_13-25-02,1465903502.70539,0,0,0,0,0,0,-1,3,-15,-5.130000,12.530000,149.660004,0,0,5,0,0,0
2016-06-14_13-25-02,1465903502.78048,0,0,0,0,0,0,-1,3,-15,-5.010000,12.920000,150.179993,0,0,5,0,0,0
2016-06-14_13-25-02,1465903502.81789,0,0,0,0,0,0,-1,3,-15,-4.910000,13.170000,150.529999,0,0,5,0,0,0
2016-06-14_13-25-02,1465903502.85558,0,0,0,0,0,0,-1,3,-15,-4.770000,13.320000,150.809998,0,0,5,0,0,0
2016-06-14_13-25-02,1465903502.93051,0,0,0,0,0,0,-1,3,-15,-4.690000,13.470000,151.139999,0,0,5,0,0,0
2016-06-14_13-25-02,1465903502.96815,0,0,0,0,0,0,-1,3,-15,-4.760000,13.640000,151.539993,0,0,5,0,0,0
2016-06-14_13-25-03,1465903503.00532,0,0,0,0,0,0,-1,3,-15,-4.820000,13.910000,151.899994,0,0,5,0,0,0
2016-06-14_13-25-03,1465903503.08067,0,0,0,0,0,0,-2,3,-15,-4.820000,14.210000,152.229996,0,0,5,0,0,0
2016-06-14_13-25-03,1465903503.11789,0,0,0,0,0,0,-2,3,-15,-4.830000,14.480000,152.470001,0,0,5,0,0,0
2016-06-14_13-25-03,1465903503.15578,0,0,0,0,0,0,-2,3,-15,-4.800000,14.630000,152.740005,0,0,5,0,0,0
2016-06-14_13-25-03,1465903503.23051,0,0,0,0,0,0,-2,3,-15,-4.760000,14.670000,153.139999,0,0,5,0,0,0
2016-06-14_13-25-03,1465903503.26809,0,0,0,0,0,0,-2,3,-15,-4.820000,14.750000,153.789993,0,0,5,0,0,0
2016-06-14_13-25-03,1465903503.30540,0,0,0,0,0,0,-1,3,-15,-4.870000,14.960000,154.679993,0,0,5,0,0,0
2016-06-14_13-25-03,1465903503.38069,0,0,0,1,0,0,-1,3,-15,-4.910000,15.240000,155.699997,0,0,5,0,0,0
2016-06-14_13-25-03,1465903503.41790,0,0,0,0,0,0,-2,3,-15,-4.900000,15.520000,156.759995,0,0,5,0,0,0
2016-06-14_13-25-03,1465903503.45560,0,0,0,0,0,0,-2,3,-15,-4.790000,15.810000,157.669998,0,0,5,0,0,0
2016-06-14_13-25-03,1465903503.53047,0,0,0,0,0,0,-2,3,-15,-4.720000,15.910000,158.320007,0,0,5,0,0,0
2016-06-14_13-25-03,1465903503.56813,0,0,0,0,0,0,-2,3,-15,-4.620000,15.760000,158.559998,0,0,5,0,0,0
2016-06-14_13-25-03,1465903503.60540,0,0,0,0,0,0,-2,3,-15,-4.570000,15.560000,158.460007,0,0,5,0,0,0
2016-06-14_13-25-03,1465903503.68068,0,0,0,0,0,0,-1,3,-15,-4.620000,15.400000,158.039993,0,0,5,0,0,0
2016-06-14_13-25-03,1465903503.71791,0,0,0,0,0,0,-1,3,-15,-4.850000,15.270000,157.479996,0,0,5,0,0,0
2016-06-14_13-25-03,1465903503.75562,0,0,0,0,0,0,-1,3,-15,-5.170000,15.140000,156.649994,0,0,5,0,0,0
2016-06-14_13-25-03,1465903503.83048,0,0,0,0,0,0,-1,4,-15,-5.600000,15.060000,155.839996,0,0,5,0,0,0
2016-06-14_13-25-03,1465903503.86810,0,0,0,1,0,0,-1,4,-15,-5.800000,15.040000,155.300003,0,0,5,0,0,0
2016-06-14_13-25-03,1465903503.90541,0,0,0,0,0,0,-1,4,-15,-5.820000,15.080000,154.820007,0,0,5,0,0,0
2016-06-14_13-25-03,1465903503.98074,0,0,0,0,0,0,-1,4,-15,-5.830000,15.110000,154.320007,0,0,5,0,0,0
2016-06-14_13-25-04,1465903504.01797,0,0,0,0,0,0,-1,4,-15,-5.810000,15.260000,153.759995,0,0,5,0,0,0
2016-06-14_13-25-04,1465903504.05560,0,0,0,0,0,0,-1,3,-15,-5.790000,15.450000,153.229996,0,0,5,0,0,0
2016-06-14_13-25-04,1465903504.13041,0,0,0,1,0,0,-1,4,-15,-5.710000,15.710000,152.669998,0,0,5,0,0,0
2016-06-14_13-25-04,1465903504.16812,0,0,0,0,0,0,-1,3,-15,-5.790000,16.240000,152.169998,0,0,5,0,0,0
2016-06-14_13-25-04,1465903504.20540,0,0,0,0,0,0,-1,4,-15,-5.930000,16.889999,151.639999,0,0,5,0,0,0
2016-06-14_13-25-04,1465903504.28076,0,0,0,0,0,0,-1,4,-15,-6.130000,17.610001,151.100006,0,0,5,0,0,0
2016-06-14_13-25-04,1465903504.31791,0,0,0,0,0,0,-2,4,-14,-6.330000,18.230000,150.399994,0,0,5,0,0,0
2016-06-14_13-25-04,1465903504.35545,0,0,0,0,0,0,-2,4,-15,-6.560000,18.950001,149.429993,0,0,5,0,0,0
2016-06-14_13-25-04,1465903504.43049,0,0,0,0,0,0,-2,3,-15,-6.990000,19.930000,147.679993,0,0,5,0,0,0
2016-06-14_13-25-04,1465903504.46812,0,0,0,0,0,0,-1,2,-13,-7.960000,20.440001,143.610001,0,0,5,0,0,0
2016-06-14_13-25-04,1465903504.50540,0,0,0,0,0,0,0,4,-15,-10.030000,19.620001,136.500000,0,0,5,0,0,0
2016-06-14_13-25-04,1465903504.58078,0,0,0,0,0,0,1,6,-15,-12.460000,17.820000,127.300003,0,0,5,0,0,0
2016-06-14_13-25-04,1465903504.65490,0,0,0,1,0,0,2,6,-15,-14.330000,15.400000,117.410004,0,0,5,0,0,0
2016-06-14_13-25-04,1465903504.65701,0,0,0,0,0,0,2,6,-14,-15.250000,12.440000,107.680000,0,0,5,0,0,0
2016-06-14_13-25-04,1465903504.73050,0,0,0,0,0,0,3,6,-14,-15.630000,9.260000,98.629997,0,0,5,0,0,0
2016-06-14_13-25-04,1465903504.76811,0,0,0,0,0,0,3,5,-15,-15.580000,6.440000,90.709999,0,0,5,0,0,0
2016-06-14_13-25-04,1465903504.80542,0,0,0,0,0,0,3,5,-15,-14.900000,3.940000,84.040001,0,0,5,0,0,0
2016-06-14_13-25-04,1465903504.88068,0,0,0,0,1,0,3,4,-15,-13.880000,1.980000,78.669998,0,0,5,0,0,0
2016-06-14_13-25-04,1465903504.91796,0,0,0,0,0,0,2,3,-15,-13.150000,0.880000,74.970001,0,0,5,0,0,0
2016-06-14_13-25-04,1465903504.95542,0,0,0,0,0,0,2,3,-15,-12.480000,0.210000,72.470001,0,0,5,0,0,0
2016-06-14_13-25-05,1465903505.03043,0,0,0,0,0,0,2,3,-15,-12.000000,-0.280000,70.900002,0,0,5,0,0,0
2016-06-14_13-25-05,1465903505.06814,0,0,0,0,0,0,2,2,-15,-11.550000,-0.650000,70.129997,0,0,5,0,0,0
2016-06-14_13-25-05,1465903505.14294,0,0,0,0,0,0,2,2,-15,-11.000000,-1.210000,69.730003,0,0,5,0,0,0
2016-06-14_13-25-05,1465903505.18084,0,0,0,0,0,0,2,1,-15,-10.310000,-2.040000,69.339996,0,0,5,0,0,0
2016-06-14_13-25-05,1465903505.25491,0,0,0,0,0,0,2,1,-15,-9.520000,-2.860000,68.769997,0,0,5,0,0,0
2016-06-14_13-25-05,1465903505.25698,0,0,0,0,0,0,2,1,-15,-8.930000,-3.400000,68.129997,0,0,5,0,0,0
2016-06-14_13-25-05,1465903505.33051,0,0,0,0,0,0,2,1,-15,-8.490000,-3.680000,67.400002,0,0,5,0,0,0
2016-06-14_13-25-05,1465903505.36798,0,0,0,0,0,0,2,1,-15,-8.260000,-3.680000,66.720001,0,0,5,0,0,0
2016-06-14_13-25-05,1465903505.40562,0,0,0,0,0,0,2,1,-15,-8.270000,-3.650000,66.309998,0,0,5,0,0,0
2016-06-14_13-25-05,1465903505.48080,0,0,0,0,0,0,2,1,-16,-8.420000,-3.900000,66.180000,0,0,5,0,0,0
2016-06-14_13-25-05,1465903505.51793,0,0,0,0,0,0,2,1,-16,-8.280000,-4.220000,65.970001,0,0,5,0,0,0
2016-06-14_13-25-05,1465903505.55543,0,0,0,0,0,0,2,1,-15,-7.970000,-4.410000,65.720001,0,0,5,0,0,0
2016-06-14_13-25-05,1465903505.63052,0,0,0,0,0,0,2,1,-15,-7.620000,-4.430000,65.550003,0,0,5,0,0,0
2016-06-14_13-25-05,1465903505.66796,0,0,0,0,0,0,2,1,-15,-7.440000,-4.400000,65.519997,0,0,5,0,0,0
2016-06-14_13-25-05,1465903505.70565,0,0,0,0,0,0,2,0,-15,-7.470000,-4.350000,65.629997,0,0,5,0,0,0
2016-06-14_13-25-05,1465903505.78083,0,0,0,0,0,0,2,1,-16,-7.480000,-4.280000,65.660004,0,0,5,0,0,0
2016-06-14_13-25-05,1465903505.81804,0,0,0,0,0,0,2,1,-16,-7.360000,-4.250000,65.500000,0,0,5,0,0,0
2016-06-14_13-25-05,1465903505.85547,0,0,0,0,0,0,2,1,-15,-7.180000,-4.270000,65.290001,0,0,5,0,0,0
2016-06-14_13-25-05,1465903505.93059,0,0,0,0,0,0,2,0,-15,-6.940000,-4.400000,65.080002,0,0,5,0,0,0
2016-06-14_13-25-05,1465903505.96794,0,0,0,0,0,0,2,0,-15,-6.670000,-4.540000,64.900002,0,0,5,0,0,0
2016-06-14_13-25-06,1465903506.00610,0,0,0,0,0,0,2,0,-15,-6.430000,-4.630000,64.699997,0,0,5,0,0,0
2016-06-14_13-25-06,1465903506.08129,0,0,0,0,0,0,2,0,-15,-6.290000,-4.610000,64.449997,0,0,5,0,0,0
2016-06-14_13-25-06,1465903506.11813,0,0,0,0,0,0,2,0,-15,-6.220000,-4.540000,64.190002,0,0,5,0,0,0
2016-06-14_13-25-06,1465903506.19316,0,0,0,0,0,0,2,0,-15,-6.190000,-4.480000,63.939999,0,0,5,0,0,0
2016-06-14_13-25-06,1465903506.26742,0,0,0,0,0,0,1,0,-16,-6.120000,-4.440000,63.709999,0,0,5,0,0,0
2016-06-14_13-25-06,1465903506.26946,0,0,0,0,0,0,2,0,-15,-6.010000,-4.410000,63.419998,0,0,5,0,0,0
2016-06-14_13-25-06,1465903506.30576,0,0,0,0,0,0,2,0,-15,-5.840000,-4.460000,62.700001,0,0,5,0,0,0
2016-06-14_13-25-06,1465903506.38057,0,0,0,0,0,0,2,0,-16,-5.790000,-4.470000,61.419998,0,0,5,0,0,0
2016-06-14_13-25-06,1465903506.41816,0,0,0,0,0,0,2,0,-15,-5.470000,-4.450000,59.619999,0,0,5,0,0,0
2016-06-14_13-25-06,1465903506.45545,0,0,0,0,0,0,2,0,-15,-5.120000,-4.350000,57.520000,0,0,5,0,0,0
2016-06-14_13-25-06,1465903506.53054,0,0,0,0,0,0,1,0,-15,-4.930000,-4.170000,55.490002,0,0,5,0,0,0
2016-06-14_13-25-06,1465903506.56795,0,0,0,0,0,0,1,0,-15,-4.800000,-3.940000,53.709999,0,0,5,0,0,0
2016-06-14_13-25-06,1465903506.60566,0,0,0,0,0,0,1,1,-15,-4.770000,-3.740000,52.220001,0,0,5,0,0,0
2016-06-14_13-25-06,1465903506.68048,0,0,0,0,0,0,1,1,-15,-4.850000,-3.490000,51.049999,0,0,5,0,0,0
2016-06-14_13-25-06,1465903506.75498,0,0,0,0,0,0,1,1,-16,-4.980000,-3.200000,50.340000,0,0,5,0,0,0
2016-06-14_13-25-06,1465903506.75708,0,0,0,0,0,0,1,1,-16,-4.930000,-2.940000,50.200001,0,0,5,0,0,0
2016-06-14_13-25-06,1465903506.83047,0,0,0,0,0,0,1,0,-16,-4.660000,-2.860000,50.330002,0,0,5,0,0,0
2016-06-14_13-25-06,1465903506.86796,0,0,0,1,1,0,1,0,-15,-4.460000,-2.890000,50.369999,0,0,5,0,0,0
2016-06-14_13-25-06,1465903506.90564,0,0,0,0,0,0,1,0,-15,-4.370000,-2.990000,50.340000,0,0,5,0,0,0
2016-06-14_13-25-06,1465903506.98052,0,0,0,0,0,0,1,0,-15,-4.310000,-3.010000,50.430000,0,0,5,0,0,0
2016-06-14_13-25-07,1465903507.01815,0,0,0,0,0,0,1,0,-15,-4.270000,-2.990000,50.680000,0,0,5,0,0,0
2016-06-14_13-25-07,1465903507.05546,0,0,0,0,0,0,1,0,-15,-4.280000,-2.950000,51.040001,0,0,5,0,0,0
2016-06-14_13-25-07,1465903507.13053,0,0,0,0,0,0,1,0,-15,-4.390000,-2.940000,51.380001,0,0,5,0,0,0
2016-06-14_13-25-07,1465903507.20499,0,0,0,0,0,0,1,0,-15,-4.440000,-2.980000,51.730000,0,0,5,0,0,0
2016-06-14_13-25-07,1465903507.20707,0,0,0,0,0,0,1,0,-15,-4.460000,-3.070000,52.200001,0,0,5,0,0,0
2016-06-14_13-25-07,1465903507.35501,0,0,0,0,0,0,1,0,-16,-4.480000,-3.230000,52.700001,0,0,5,0,0,0
2016-06-14_13-25-07,1465903507.35710,0,0,0,0,0,0,1,0,-16,-4.550000,-3.450000,53.180000,0,0,5,0,0,0
2016-06-14_13-25-07,1465903507.35763,0,0,0,0,0,0,1,0,-16,-4.620000,-3.730000,53.619999,0,0,5,0,0,0
2016-06-14_13-25-07,1465903507.43055,0,0,0,0,0,0,1,0,-16,-4.640000,-4.020000,54.040001,0,0,5,0,0,0
2016-06-14_13-25-07,1465903507.46796,0,0,0,0,0,0,1,0,-15,-4.500000,-4.380000,54.500000,0,0,5,0,0,0
2016-06-14_13-25-07,1465903507.54298,0,0,0,0,0,0,1,0,-15,-4.350000,-4.870000,55.049999,0,0,5,0,0,0
2016-06-14_13-25-07,1465903507.58052,0,0,0,0,0,0,1,0,-15,-4.190000,-5.240000,55.660000,0,0,5,0,0,0
2016-06-14_13-25-07,1465903507.61815,0,0,0,1,0,1,1,0,-15,-4.070000,-5.560000,56.270000,0,0,5,0,0,0
2016-06-14_13-25-07,1465903507.65548,0,0,0,0,0,0,1,0,-15,-3.970000,-5.780000,56.799999,0,0,5,0,0,0
2016-06-14_13-25-07,1465903507.73058,0,0,0,0,0,0,1,0,-15,-3.910000,-5.950000,57.180000,0,0,5,0,0,0
2016-06-14_13-25-07,1465903507.80491,0,0,0,0,0,0,1,0,-15,-3.870000,-6.050000,57.439999,0,0,5,0,0,0
2016-06-14_13-25-07,1465903507.80708,0,0,0,0,0,0,1,0,-15,-3.870000,-6.060000,57.630001,0,0,5,0,0,0
2016-06-14_13-25-07,1465903507.88054,0,0,0,0,0,0,1,0,-15,-3.960000,-6.020000,57.779999,0,0,5,0,0,0
2016-06-14_13-25-07,1465903507.91837,0,0,0,0,0,0,1,0,-15,-4.110000,-5.970000,57.849998,0,0,5,0,0,0
2016-06-14_13-25-07,1465903507.95547,0,0,0,0,0,0,1,0,-15,-4.250000,-5.950000,57.860001,0,0,5,0,0,0
2016-06-14_13-25-08,1465903508.03055,0,0,0,0,0,0,1,0,-16,-4.380000,-5.970000,57.849998,0,0,5,0,0,0
2016-06-14_13-25-08,1465903508.06797,0,0,0,0,0,0,1,0,-16,-4.510000,-5.970000,57.860001,0,0,5,0,0,0
2016-06-14_13-25-08,1465903508.10568,0,0,0,0,0,0,1,0,-16,-4.620000,-6.010000,57.799999,0,0,5,0,0,0
2016-06-14_13-25-08,1465903508.18059,0,0,0,0,0,0,1,0,-15,-4.730000,-5.930000,57.709999,0,0,5,0,0,0
2016-06-14_13-25-08,1465903508.25500,0,0,0,0,0,0,1,0,-16,-4.820000,-5.860000,57.610001,0,0,5,0,0,0
2016-06-14_13-25-08,1465903508.25703,0,0,0,0,0,0,1,0,-15,-4.860000,-5.810000,57.520000,0,0,5,0,0,0
2016-06-14_13-25-08,1465903508.33056,0,0,0,0,0,0,1,0,-15,-4.880000,-5.800000,57.419998,0,0,5,0,0,0
2016-06-14_13-25-08,1465903508.36798,0,0,0,0,0,0,2,0,-15,-4.860000,-5.740000,57.220001,0,0,5,0,0,0
2016-06-14_13-25-08,1465903508.40568,0,0,0,0,0,0,1,0,-15,-4.820000,-5.650000,56.910000,0,0,5,0,0,0
2016-06-14_13-25-08,1465903508.48056,0,0,0,0,0,0,1,0,-15,-4.750000,-5.520000,56.459999,0,0,5,0,0,0
2016-06-14_13-25-08,1465903508.51818,0,0,0,0,0,0,1,0,-15,-4.660000,-5.400000,55.910000,0,0,5,0,0,0
2016-06-14_13-25-08,1465903508.55548,0,0,0,0,0,0,1,0,-15,-4.570000,-5.300000,55.299999,0,0,5,0,0,0
2016-06-14_13-25-08,1465903508.63057,0,0,0,0,0,0,1,0,-15,-4.490000,-5.110000,54.689999,0,0,5,0,0,0
2016-06-14_13-25-08,1465903508.66800,0,0,0,0,0,0,1,0,-15,-4.540000,-4.910000,54.060001,0,0,5,0,0,0
2016-06-14_13-25-08,1465903508.70567,0,0,0,0,0,0,1,0,-15,-4.670000,-4.780000,53.380001,0,0,5,0,0,0
2016-06-14_13-25-08,1465903508.78058,0,0,0,0,0,0,1,0,-15,-4.790000,-4.650000,52.689999,0,0,5,0,0,0
2016-06-14_13-25-08,1465903508.81819,0,0,0,0,0,0,1,0,-15,-4.870000,-4.520000,52.080002,0,0,5,0,0,0
2016-06-14_13-25-08,1465903508.85561,0,0,0,0,0,0,1,0,-15,-4.940000,-4.370000,51.599998,0,0,5,0,0,0
2016-06-14_13-25-08,1465903508.93058,0,0,0,0,0,0,1,0,-15,-5.000000,-4.290000,51.220001,0,0,5,0,0,0
2016-06-14_13-25-09,1465903509.00487,0,0,0,0,0,0,1,0,-15,-5.040000,-4.300000,50.910000,0,0,5,0,0,0
2016-06-14_13-25-09,1465903509.00709,0,0,0,0,0,0,1,0,-15,-5.090000,-4.350000,50.639999,0,0,5,0,0,0
2016-06-14_13-25-09,1465903509.08066,0,0,0,0,0,0,1,0,-15,-5.150000,-4.380000,50.380001,0,0,5,0,0,0
2016-06-14_13-25-09,1465903509.11812,0,0,0,1,0,0,1,0,-15,-5.240000,-4.360000,50.209999,0,0,5,0,0,0
2016-06-14_13-25-09,1465903509.15551,0,0,0,0,0,0,1,0,-15,-5.280000,-4.340000,50.130001,0,0,5,0,0,0
2016-06-14_13-25-09,1465903509.23059,0,0,0,0,0,0,1,0,-15,-5.300000,-4.300000,50.139999,0,0,5,0,0,0
2016-06-14_13-25-09,1465903509.26800,0,0,0,0,0,0,1,0,-15,-5.380000,-4.290000,50.209999,0,0,5,0,0,0
2016-06-14_13-25-09,1465903509.30570,0,0,0,0,0,0,1,0,-16,-5.430000,-4.290000,50.360001,0,0,5,0,0,0
2016-06-14_13-25-09,1465903509.38057,0,0,0,0,1,0,1,0,-15,-5.380000,-4.280000,50.549999,0,0,5,0,0,0
2016-06-14_13-25-09,1465903509.41823,0,0,0,0,0,0,1,0,-15,-5.290000,-4.320000,50.740002,0,0,5,0,0,0
2016-06-14_13-25-09,1465903509.45560,0,0,0,0,0,0,1,0,-15,-5.300000,-4.390000,50.980000,0,0,5,0,0,0
2016-06-14_13-25-09,1465903509.56749,0,0,0,0,0,0,1,0,-15,-5.430000,-4.510000,51.340000,0,0,5,0,0,0
2016-06-14_13-25-09,1465903509.56976,0,0,0,0,0,0,1,0,-15,-5.610000,-4.620000,51.820000,0,0,5,0,0,0
2016-06-14_13-25-09,1465903509.60570,0,0,0,0,0,0,2,0,-15,-5.850000,-4.720000,52.410000,0,0,5,0,0,0
2016-06-14_13-25-09,1465903509.68071,0,0,0,0,0,0,2,0,-15,-6.050000,-4.810000,53.000000,0,0,5,0,0,0
2016-06-14_13-25-09,1465903509.71814,0,0,0,0,0,0,2,0,-15,-6.190000,-4.890000,53.560001,0,0,5,0,0,0
2016-06-14_13-25-09,1465903509.79330,0,0,0,0,0,0,2,0,-15,-6.220000,-4.930000,54.110001,0,0,5,0,0,0
2016-06-14_13-25-09,1465903509.83059,0,0,0,0,0,0,2,0,-16,-6.050000,-4.880000,54.660000,0,0,5,0,0,0
2016-06-14_13-25-09,1465903509.86823,130,74,0,0,0,0,1,0,-15,-5.910000,-4.760000,55.250000,0,0,5,0,0,0
2016-06-14_13-25-09,1465903509.90574,0,0,0,0,0,0,1,0,-15,-5.840000,-4.640000,55.820000,0,0,5,0,0,0
2016-06-14_13-25-09,1465903509.98063,0,0,0,0,0,0,1,0,-15,-5.810000,-4.560000,56.369999,0,0,5,0,0,0
2016-06-14_13-25-10,1465903510.01821,0,0,0,0,0,0,1,0,-15,-5.720000,-4.590000,56.950001,0,0,5,0,0,0
2016-06-14_13-25-10,1465903510.05552,0,0,0,0,0,0,1,0,-15,-5.650000,-4.600000,57.650002,0,0,5,0,0,0
2016-06-14_13-25-10,1465903510.13061,0,0,0,0,0,0,1,0,-16,-5.700000,-4.460000,58.509998,0,0,5,0,0,0
2016-06-14_13-25-10,1465903510.16801,0,0,0,0,0,0,1,0,-15,-5.770000,-4.270000,59.400002,0,0,5,0,0,0
2016-06-14_13-25-10,1465903510.20569,0,0,0,0,0,0,1,0,-15,-5.830000,-4.160000,60.200001,0,0,5,0,0,0
2016-06-14_13-25-10,1465903510.28064,0,0,0,0,0,0,1,0,-15,-5.880000,-4.140000,60.939999,0,0,5,0,0,0
2016-06-14_13-25-10,1465903510.31821,0,0,0,0,0,0,1,0,-15,-5.940000,-4.140000,61.630001,0,0,5,0,0,0
2016-06-14_13-25-10,1465903510.35552,0,0,0,0,0,0,1,0,-15,-6.090000,-4.120000,62.369999,0,0,5,0,0,0
2016-06-14_13-25-10,1465903510.43061,0,0,0,0,0,0,1,0,-16,-6.230000,-4.010000,63.240002,0,0,5,0,0,0
2016-06-14_13-25-10,1465903510.46813,0,0,0,0,0,0,1,0,-15,-6.330000,-3.840000,64.330002,0,0,5,0,0,0
2016-06-14_13-25-10,1465903510.50572,0,0,0,0,0,0,1,0,-15,-6.390000,-3.660000,65.629997,0,0,5,0,0,0
2016-06-14_13-25-10,1465903510.58066,0,0,0,0,0,0,1,0,-15,-6.430000,-3.460000,67.059998,0,0,5,0,0,0
2016-06-14_13-25-10,1465903510.61822,0,0,0,0,0,0,1,0,-15,-6.450000,-3.250000,68.620003,0,0,5,0,0,0
2016-06-14_13-25-10,1465903510.65552,0,0,0,0,0,0,1,0,-16,-6.410000,-3.110000,70.089996,0,0,5,0,0,0
2016-06-14_13-25-10,1465903510.73061,0,0,0,0,0,0,1,0,-16,-6.340000,-3.010000,71.339996,0,0,5,0,0,0
2016-06-14_13-25-10,1465903510.76804,0,0,0,0,0,0,1,0,-16,-6.240000,-2.850000,72.500000,0,0,5,0,0,0
2016-06-14_13-25-10,1465903510.80584,0,0,0,0,0,0,1,0,-15,-6.320000,-2.560000,73.849998,0,0,5,0,0,0
2016-06-14_13-25-10,1465903510.88062,0,0,0,0,0,0,1,0,-15,-6.490000,-2.280000,75.379997,0,0,5,0,0,0
2016-06-14_13-25-10,1465903510.91822,0,0,0,0,0,0,1,0,-16,-6.580000,-2.120000,76.839996,0,0,5,0,0,0
2016-06-14_13-25-10,1465903510.95552,0,0,0,0,0,0,1,0,-15,-6.620000,-2.000000,78.209999,0,0,5,0,0,0
2016-06-14_13-25-11,1465903511.06752,0,0,0,0,0,0,1,0,-15,-6.530000,-1.740000,79.470001,0,0,5,0,0,0
2016-06-14_13-25-11,1465903511.06959,0,0,0,0,0,0,1,0,-15,-6.610000,-1.370000,80.790001,0,0,5,0,0,0
2016-06-14_13-25-11,1465903511.10573,0,0,0,0,0,0,1,1,-15,-6.830000,-0.730000,82.309998,0,0,5,0,0,0
2016-06-14_13-25-11,1465903511.18069,0,0,0,0,0,0,1,2,-15,-7.440000,0.300000,84.839996,0,0,5,0,0,0
2016-06-14_13-25-11,1465903511.21841,0,0,0,0,0,0,1,1,-16,-8.590000,1.580000,88.769997,0,0,5,0,0,0
2016-06-14_13-25-11,1465903511.25553,0,0,0,0,0,0,1,1,-16,-9.210000,2.510000,92.790001,0,0,5,0,0,0
2016-06-14_13-25-11,1465903511.33067,0,0,0,0,0,0,1,1,-15,-9.580000,3.140000,96.070000,0,0,5,0,0,0
2016-06-14_13-25-11,1465903511.36804,0,0,0,0,0,0,1,1,-15,-9.790000,3.600000,98.419998,0,0,5,0,0,0
2016-06-14_13-25-11,1465903511.40573,0,0,0,0,0,0,1,2,-15,-9.920000,3.930000,100.089996,0,0,5,0,0,0
2016-06-14_13-25-11,1465903511.48069,0,0,0,0,0,0,1,2,-15,-10.080000,4.310000,101.459999,0,0,5,0,0,0
2016-06-14_13-25-11,1465903511.51824,0,0,0,0,0,0,1,2,-15,-10.120000,4.680000,102.599998,0,0,5,0,0,0
2016-06-14_13-25-11,1465903511.55555,0,0,0,0,0,0,0,2,-15,-9.920000,4.880000,103.480003,0,0,5,0,0,0
2016-06-14_13-25-11,1465903511.63062,0,0,0,1,0,1,1,2,-15,-9.750000,5.080000,104.230003,0,0,5,0,0,0
2016-06-14_13-25-11,1465903511.66805,0,0,0,0,0,0,0,2,-15,-9.660000,5.170000,104.919998,0,0,5,0,0,0
2016-06-14_13-25-11,1465903511.70575,0,0,0,0,0,0,1,2,-15,-9.580000,5.310000,105.599998,0,0,5,0,0,0
2016-06-14_13-25-11,1465903511.78068,0,0,0,0,0,0,0,2,-15,-9.440000,5.400000,106.430000,0,0,5,0,0,0
2016-06-14_13-25-11,1465903511.81824,0,0,0,0,0,0,0,2,-15,-9.090000,5.370000,107.360001,0,0,5,0,0,0
2016-06-14_13-25-11,1465903511.85554,0,0,0,0,0,0,0,2,-15,-8.670000,5.430000,108.250000,0,0,5,0,0,0
2016-06-14_13-25-11,1465903511.93063,0,0,0,0,0,0,0,1,-15,-8.310000,5.630000,108.980003,0,0,5,0,0,0
2016-06-14_13-25-11,1465903511.96812,0,0,0,0,0,0,0,2,-15,-8.050000,5.840000,109.419998,0,0,5,0,0,0
2016-06-14_13-25-12,1465903512.00572,0,0,0,0,0,0,0,2,-15,-7.860000,5.860000,109.550003,0,0,5,0,0,0
2016-06-14_13-25-12,1465903512.08070,0,0,0,0,0,0,0,2,-15,-7.730000,5.750000,109.540001,0,0,5,0,0,0
2016-06-14_13-25-12,1465903512.11825,0,0,0,0,0,0,0,2,-16,-7.580000,5.600000,109.570000,0,0,5,0,0,0
2016-06-14_13-25-12,1465903512.15554,0,0,0,0,0,0,0,2,-15,-7.400000,5.520000,109.680000,0,0,5,0,0,0
2016-06-14_13-25-12,1465903512.23068,0,0,0,0,0,0,0,2,-15,-7.320000,5.480000,109.870003,0,0,5,0,0,0
2016-06-14_13-25-12,1465903512.26814,0,0,0,0,0,0,0,1,-15,-7.210000,5.460000,109.989998,0,0,5,0,0,0
2016-06-14_13-25-12,1465903512.30575,0,0,0,0,0,0,0,1,-15,-7.150000,5.450000,110.019997,0,0,5,0,0,0
2016-06-14_13-25-12,1465903512.38069,0,0,0,0,0,0,0,2,-15,-7.120000,5.510000,109.949997,0,0,5,0,0,0
2016-06-14_13-25-12,1465903512.45506,0,0,0,0,0,0,0,2,-15,-7.190000,5.570000,109.879997,0,0,5,0,0,0
2016-06-14_13-25-12,1465903512.45728,0,0,0,0,0,0,0,2,-15,-7.260000,5.540000,109.809998,0,0,5,0,0,0
2016-06-14_13-25-12,1465903512.53064,0,0,0,0,0,0,0,2,-15,-7.340000,5.440000,109.769997,0,0,5,0,0,0
2016-06-14_13-25-12,1465903512.56800,0,0,0,0,0,0,0,2,-15,-7.440000,5.370000,109.739998,0,0,5,0,0,0
2016-06-14_13-25-12,1465903512.60575,0,0,0,0,0,0,0,2,-15,-7.540000,5.320000,109.690002,0,0,5,0,0,0
2016-06-14_13-25-12,1465903512.68069,0,0,0,0,0,0,0,2,-15,-7.640000,5.250000,109.620003,0,0,5,0,0,0
2016-06-14_13-25-12,1465903512.71857,0,0,0,0,0,0,0,2,-15,-7.660000,5.230000,109.500000,0,0,5,0,0,0
2016-06-14_13-25-12,1465903512.75559,0,0,0,0,0,0,0,2,-15,-7.750000,5.230000,109.360001,0,0,5,0,0,0
2016-06-14_13-25-12,1465903512.83063,0,0,0,0,0,0,0,2,-15,-7.810000,5.240000,109.209999,0,0,5,0,0,0
2016-06-14_13-25-12,1465903512.86813,0,0,0,1,0,0,0,2,-15,-7.830000,5.250000,109.080002,0,0,5,0,0,0
2016-06-14_13-25-12,1465903512.90574,0,0,0,0,0,0,0,2,-15,-7.850000,5.270000,108.930000,0,0,5,0,0,0
2016-06-14_13-25-12,1465903512.98081,0,0,0,0,0,0,0,2,-15,-7.940000,5.340000,108.769997,0,0,5,0,0,0
2016-06-14_13-25-13,1465903513.01836,0,0,0,0,0,0,0,2,-15,-8.020000,5.420000,108.660004,0,0,5,0,0,0
2016-06-14_13-25-13,1465903513.05557,0,0,0,0,0,0,0,2,-15,-8.060000,5.480000,108.540001,0,0,5,0,0,0
2016-06-14_13-25-13,1465903513.13062,0,0,0,0,0,0,0,2,-15,-8.110000,5.610000,108.410004,0,0,5,0,0,0
2016-06-14_13-25-13,1465903513.16810,0,0,0,0,0,0,0,2,-15,-8.150000,5.810000,108.260002,0,0,5,0,0,0
2016-06-14_13-25-13,1465903513.20581,0,0,0,0,0,0,0,2,-15,-8.160000,6.000000,108.129997,0,0,5,0,0,0
2016-06-14_13-25-13,1465903513.28065,0,0,0,0,0,0,0,2,-16,-8.090000,6.200000,107.989998,0,0,5,0,0,0
2016-06-14_13-25-13,1465903513.31834,0,0,0,0,0,0,0,2,-15,-8.030000,6.390000,107.790001,0,0,5,0,0,0
2016-06-14_13-25-13,1465903513.35556,0,0,0,1,0,0,0,2,-15,-8.050000,6.460000,107.610001,0,0,5,0,0,0
2016-06-14_13-25-13,1465903513.43057,0,0,0,0,0,0,0,2,-15,-8.050000,6.490000,107.470001,0,0,5,0,0,0
2016-06-14_13-25-13,1465903513.46821,0,0,0,0,0,0,0,2,-15,-8.090000,6.510000,107.430000,0,0,5,0,0,0
2016-06-14_13-25-13,1465903513.50569,0,0,0,0,0,0,0,2,-15,-8.190000,6.570000,107.440002,0,0,5,0,0,0
2016-06-14_13-25-13,1465903513.58072,0,0,0,0,0,0,0,2,-15,-8.290000,6.610000,107.489998,0,0,5,0,0,0
2016-06-14_13-25-13,1465903513.61835,0,0,0,0,0,0,0,2,-15,-8.330000,6.590000,107.550003,0,0,5,0,0,0
2016-06-14_13-25-13,1465903513.65572,0,0,0,0,0,0,0,2,-15,-8.370000,6.590000,107.610001,0,0,5,0,0,0
2016-06-14_13-25-13,1465903513.73067,0,0,0,0,0,0,0,2,-15,-8.430000,6.630000,107.669998,0,0,5,0,0,0
2016-06-14_13-25-13,1465903513.76808,0,0,0,0,0,0,0,2,-15,-8.490000,6.640000,107.760002,0,0,5,0,0,0
2016-06-14_13-25-13,1465903513.80577,0,0,0,0,0,0,0,2,-16,-8.530000,6.610000,107.879997,0,0,5,0,0,0
2016-06-14_13-25-13,1465903513.88071,0,0,0,1,0,0,0,2,-15,-8.550000,6.620000,107.970001,0,0,5,0,0,0
2016-06-14_13-25-13,1465903513.91823,0,0,0,0,0,0,0,2,-15,-8.610000,6.580000,108.000000,0,0,5,0,0,0
2016-06-14_13-25-13,1465903513.95566,0,0,0,0,0,0,0,2,-15,-8.630000,6.540000,107.919998,0,0,5,0,0,0
2016-06-14_13-25-14,1465903514.03061,0,0,0,0,0,0,0,2,-15,-8.690000,6.520000,107.820000,0,0,5,0,0,0
2016-06-14_13-25-14,1465903514.06810,0,0,0,0,0,0,0,2,-15,-8.770000,6.530000,107.739998,0,0,5,0,0,0
2016-06-14_13-25-14,1465903514.10608,0,0,0,0,0,0,0,2,-15,-8.880000,6.550000,107.720001,0,0,5,0,0,0
2016-06-14_13-25-14,1465903514.18072,0,0,0,0,0,0,0,2,-15,-8.940000,6.600000,107.680000,0,0,5,0,0,0
2016-06-14_13-25-14,1465903514.21834,0,0,0,0,0,0,0,2,-15,-8.960000,6.670000,107.589996,0,0,5,0,0,0
2016-06-14_13-25-14,1465903514.25577,0,0,0,0,0,0,0,2,-15,-8.970000,6.740000,107.500000,0,0,5,0,0,0
2016-06-14_13-25-14,1465903514.33067,0,0,0,0,0,0,0,2,-15,-8.960000,6.750000,107.449997,0,0,5,0,0,0
2016-06-14_13-25-14,1465903514.36817,0,0,0,0,0,0,0,2,-16,-8.920000,6.760000,107.470001,0,0,5,0,0,0
2016-06-14_13-25-14,1465903514.40581,0,0,0,0,0,0,0,2,-15,-8.860000,6.820000,107.470001,0,0,5,0,0,0
2016-06-14_13-25-14,1465903514.48067,0,0,0,0,0,0,0,2,-15,-8.880000,6.760000,107.459999,0,0,5,0,0,0
2016-06-14_13-25-14,1465903514.51836,0,0,0,0,0,0,0,2,-15,-8.860000,6.730000,107.389999,0,0,5,0,0,0
2016-06-14_13-25-14,1465903514.55560,0,0,0,0,0,0,0,2,-15,-8.810000,6.670000,107.330002,0,0,5,0,0,0
2016-06-14_13-25-14,1465903514.66766,0,0,0,0,0,0,0,2,-15,-8.780000,6.650000,107.250000,0,0,5,0,0,0
2016-06-14_13-25-14,1465903514.66972,0,0,0,0,0,0,0,2,-15,-8.840000,6.660000,107.209999,0,0,5,0,0,0
2016-06-14_13-25-14,1465903514.70584,0,0,0,0,0,0,0,2,-15,-8.890000,6.670000,107.190002,0,0,5,0,0,0
2016-06-14_13-25-14,1465903514.78066,0,0,0,0,0,0,0,2,-15,-8.970000,6.680000,107.160004,0,0,5,0,0,0
2016-06-14_13-25-14,1465903514.85521,0,0,0,0,0,0,0,2,-15,-9.120000,6.690000,107.120003,0,0,5,0,0,0
2016-06-14_13-25-14,1465903514.85738,0,0,0,0,0,0,0,2,-15,-9.260000,6.730000,107.070000,0,0,5,0,0,0
2016-06-14_13-25-14,1465903514.93065,0,0,0,0,0,0,0,2,-15,-9.320000,6.830000,107.029999,0,0,5,0,0,0
2016-06-14_13-25-14,1465903514.96811,0,0,0,0,0,0,0,3,-15,-9.350000,6.950000,106.940002,0,0,5,0,0,0
2016-06-14_13-25-15,1465903515.00580,0,0,0,0,0,0,0,3,-15,-9.420000,7.030000,106.870003,0,0,5,0,0,0
2016-06-14_13-25-15,1465903515.08074,0,0,0,0,0,0,0,3,-15,-9.470000,7.100000,106.839996,0,0,5,0,0,0
2016-06-14_13-25-15,1465903515.11837,0,0,0,0,0,0,0,3,-15,-9.560000,7.130000,106.849998,0,0,5,0,0,0
2016-06-14_13-25-15,1465903515.15561,0,0,0,0,0,0,0,3,-15,-9.660000,7.180000,106.870003,0,0,5,0,0,0
2016-06-14_13-25-15,1465903515.23068,0,0,0,0,0,0,0,3,-15,-9.770000,7.260000,106.900002,0,0,5,0,0,0
2016-06-14_13-25-15,1465903515.26819,0,0,0,0,0,0,0,3,-15,-9.860000,7.410000,106.910004,0,0,5,0,0,0
2016-06-14_13-25-15,1465903515.30579,0,0,0,0,0,0,0,3,-15,-9.970000,7.580000,106.870003,0,0,5,0,0,0
2016-06-14_13-25-15,1465903515.38080,0,0,0,0,0,0,0,0,-16,-9.980000,7.600000,106.370003,0,0,5,0,0,0
2016-06-14_13-25-15,1465903515.41805,0,0,0,0,0,0,1,-1,-15,-9.870000,6.660000,103.239998,0,0,5,0,0,0
2016-06-14_13-25-15,1465903515.45562,0,0,0,0,0,0,2,0,-15,-10.230000,4.380000,95.779999,0,0,5,0,0,0
2016-06-14_13-25-15,1465903515.53079,0,0,0,0,0,0,3,3,-16,-10.970000,1.720000,86.180000,0,0,5,0,0,0
2016-06-14_13-25-15,1465903515.56819,0,0,0,0,0,0,3,4,-16,-11.170000,-0.480000,77.250000,0,0,5,0,0,0
2016-06-14_13-25-15,1465903515.60581,0,0,0,1,0,0,3,4,-15,-10.810000,-1.940000,70.559998,0,0,5,0,0,0
2016-06-14_13-25-15,1465903515.68074,0,0,0,0,0,0,2,2,-15,-10.290000,-2.710000,66.110001,0,0,5,0,0,0
2016-06-14_13-25-15,1465903515.71840,0,0,0,0,0,0,2,2,-15,-9.770000,-3.140000,63.070000,0,0,5,0,0,0
2016-06-14_13-25-15,1465903515.75561,0,0,0,0,0,0,2,1,-15,-9.360000,-3.510000,60.750000,0,0,5,0,0,0
2016-06-14_13-25-15,1465903515.83062,0,0,0,0,0,0,2,1,-15,-8.950000,-3.940000,58.700001,0,0,5,0,0,0
2016-06-14_13-25-15,1465903515.86836,0,0,0,0,0,1,2,0,-15,-8.560000,-4.360000,56.740002,0,0,5,0,0,0
2016-06-14_13-25-15,1465903515.90586,0,0,0,0,0,0,2,0,-15,-8.250000,-4.700000,54.840000,0,0,5,0,0,0
2016-06-14_13-25-15,1465903515.98075,0,0,0,0,0,0,2,1,-15,-7.970000,-4.810000,52.990002,0,0,5,0,0,0
2016-06-14_13-25-16,1465903516.05511,0,0,0,0,0,0,2,1,-15,-7.690000,-4.630000,51.410000,0,0,5,0,0,0
2016-06-14_13-25-16,1465903516.05725,0,0,0,0,0,0,2,0,-15,-7.440000,-4.490000,50.110001,0,0,5,0,0,0
2016-06-14_13-25-16,1465903516.13081,0,0,0,0,0,0,2,0,-15,-7.090000,-4.350000,48.750000,0,0,5,0,0,0
2016-06-14_13-25-16,1465903516.16813,0,0,0,0,0,0,2,0,-15,-6.720000,-4.310000,46.450001,0,0,5,0,0,0
2016-06-14_13-25-16,1465903516.20582,0,0,0,0,0,0,3,-1,-15,-6.440000,-4.350000,42.740002,0,0,5,0,0,0
2016-06-14_13-25-16,1465903516.28077,0,0,0,0,0,0,2,0,-15,-5.830000,-4.320000,37.490002,0,0,5,0,0,0
2016-06-14_13-25-16,1465903516.31840,0,0,0,0,0,0,2,1,-15,-5.030000,-4.150000,31.459999,0,0,5,0,0,0
2016-06-14_13-25-16,1465903516.35556,0,0,0,0,0,0,2,1,-15,-4.480000,-3.900000,25.830000,0,0,5,0,0,0
2016-06-14_13-25-16,1465903516.43072,0,0,0,0,0,0,2,1,-16,-3.970000,-3.600000,21.139999,0,0,5,0,0,0
2016-06-14_13-25-16,1465903516.46814,0,0,0,0,0,0,2,1,-15,-3.350000,-3.180000,17.350000,0,0,5,0,0,0
2016-06-14_13-25-16,1465903516.50583,0,0,0,0,0,0,1,1,-15,-2.830000,-2.770000,14.280000,0,0,5,0,0,0
2016-06-14_13-25-16,1465903516.58081,0,0,0,0,0,0,1,1,-15,-2.520000,-2.420000,11.830000,0,0,5,0,0,0
2016-06-14_13-25-16,1465903516.61840,0,0,0,0,1,0,1,1,-15,-2.350000,-2.250000,9.920000,0,0,5,0,0,0
2016-06-14_13-25-16,1465903516.65564,0,0,0,0,0,0,1,0,-15,-2.150000,-2.100000,8.220000,0,0,5,0,0,0
2016-06-14_13-25-16,1465903516.73073,0,0,0,0,0,0,1,0,-16,-1.970000,-1.960000,6.530000,0,0,5,0,0,0
2016-06-14_13-25-16,1465903516.76821,0,0,0,0,0,0,1,0,-15,-1.870000,-1.720000,4.890000,0,0,5,0,0,0
2016-06-14_13-25-16,1465903516.80585,0,0,0,0,0,0,1,0,-16,-1.880000,-1.420000,3.410000,0,0,5,0,0,0
2016-06-14_13-25-16,1465903516.88077,0,0,0,1,1,0,1,1,-15,-1.880000,-1.100000,2.140000,0,0,5,0,0,0
2016-06-14_13-25-16,1465903516.91840,0,0,0,0,0,0,0,1,-15,-1.820000,-0.830000,1.140000,0,0,5,0,0,0
2016-06-14_13-25-16,1465903516.95564,0,0,0,0,0,0,0,0,-15,-1.670000,-0.720000,0.350000,0,0,5,0,0,0
2016-06-14_13-25-17,1465903517.03073,0,0,0,0,0,0,1,0,-15,-1.600000,-0.670000,359.670013,0,0,5,0,0,0
2016-06-14_13-25-17,1465903517.06821,0,0,0,0,0,0,0,0,-16,-1.560000,-0.550000,358.980011,0,0,5,0,0,0
2016-06-14_13-25-17,1465903517.10586,0,0,0,0,0,0,0,1,-16,-1.690000,-0.370000,358.420013,0,0,5,0,0,0
2016-06-14_13-25-17,1465903517.18078,0,0,0,0,0,0,1,1,-16,-1.870000,-0.270000,358.089996,0,0,5,0,0,0
2016-06-14_13-25-17,1465903517.21842,0,0,0,0,0,0,1,1,-15,-1.950000,-0.140000,357.959991,0,0,5,0,0,0
2016-06-14_13-25-17,1465903517.25564,0,0,0,0,0,0,1,0,-15,-1.970000,-0.120000,357.959991,0,0,5,0,0,0
2016-06-14_13-25-17,1465903517.33068,0,0,0,0,0,0,1,0,-15,-2.010000,-0.190000,358.040009,0,0,5,0,0,0
2016-06-14_13-25-17,1465903517.36821,0,0,0,0,0,0,1,0,-15,-2.080000,-0.300000,358.290009,0,0,5,0,0,0
2016-06-14_13-25-17,1465903517.40619,0,0,0,0,0,0,1,0,-15,-2.130000,-0.330000,358.690002,0,0,5,0,0,0
2016-06-14_13-25-17,1465903517.48073,0,0,0,0,0,0,1,0,-15,-2.250000,-0.260000,359.079987,0,0,5,0,0,0
2016-06-14_13-25-17,1465903517.51844,0,0,0,0,0,0,1,0,-15,-2.430000,-0.170000,359.470001,0,0,5,0,0,0
2016-06-14_13-25-17,1465903517.55566,0,0,0,0,0,0,1,1,-16,-2.520000,-0.090000,359.950012,0,0,5,0,0,0
2016-06-14_13-25-17,1465903517.63097,0,0,0,0,0,0,1,1,-16,-2.510000,0.010000,0.500000,0,0,5,0,0,0
2016-06-14_13-25-17,1465903517.66823,0,0,0,0,0,0,1,0,-16,-2.500000,0.170000,1.130000,0,0,5,0,0,0
2016-06-14_13-25-17,1465903517.70586,0,0,0,0,0,0,1,1,-15,-2.420000,0.330000,1.760000,0,0,5,0,0,0
2016-06-14_13-25-17,1465903517.78079,0,0,0,0,0,0,0,1,-15,-2.290000,0.500000,2.380000,0,0,5,0,0,0
2016-06-14_13-25-17,1465903517.81836,0,0,0,0,0,0,0,1,-16,-2.240000,0.650000,3.130000,0,0,5,0,0,0
2016-06-14_13-25-17,1465903517.85566,0,0,0,0,0,0,0,1,-15,-2.250000,0.820000,4.030000,0,0,5,0,0,0
2016-06-14_13-25-17,1465903517.93084,0,0,0,0,0,0,0,1,-15,-2.290000,0.960000,4.990000,0,0,5,0,0,0
2016-06-14_13-25-17,1465903517.96826,0,0,0,0,0,0,0,1,-15,-2.340000,1.130000,5.900000,0,0,5,0,0,0
2016-06-14_13-25-18,1465903518.00597,0,0,0,0,0,0,0,1,-15,-2.420000,1.320000,6.740000,0,0,5,0,0,0
2016-06-14_13-25-18,1465903518.08079,0,0,0,0,0,0,0,1,-15,-2.510000,1.520000,7.600000,0,0,5,0,0,0
2016-06-14_13-25-18,1465903518.11845,0,0,0,0,0,0,0,2,-16,-2.640000,1.790000,8.820000,0,0,5,0,0,0
2016-06-14_13-25-18,1465903518.15552,0,0,0,0,0,0,0,2,-16,-2.620000,2.130000,11.090000,0,0,5,0,0,0
2016-06-14_13-25-18,1465903518.23079,0,0,0,0,0,0,0,1,-15,-2.240000,2.050000,14.400000,0,0,5,0,0,0
2016-06-14_13-25-18,1465903518.26819,0,0,0,0,0,0,0,0,-15,-1.780000,1.570000,18.120001,0,0,5,0,0,0
2016-06-14_13-25-18,1465903518.30596,0,0,0,0,0,0,0,0,-15,-1.480000,1.130000,21.469999,0,0,5,0,0,0
2016-06-14_13-25-18,1465903518.38081,0,0,0,1,0,0,0,0,-16,-1.370000,0.790000,24.129999,0,0,5,0,0,0
2016-06-14_13-25-18,1465903518.41838,0,0,0,0,0,0,0,0,-15,-1.380000,0.520000,26.139999,0,0,5,0,0,0
2016-06-14_13-25-18,1465903518.45568,0,0,0,0,0,0,0,0,-15,-1.480000,0.300000,27.750000,0,0,5,0,0,0
2016-06-14_13-25-18,1465903518.53075,0,0,0,0,0,0,0,0,-15,-1.580000,0.120000,29.100000,0,0,5,0,0,0
2016-06-14_13-25-18,1465903518.56826,0,0,0,0,0,0,0,0,-16,-1.720000,-0.040000,30.340000,0,0,5,0,0,0
2016-06-14_13-25-18,1465903518.60593,150,81,0,0,0,0,0,0,-16,-1.860000,-0.160000,31.549999,0,0,5,0,0,0
2016-06-14_13-25-18,1465903518.68082,0,0,0,0,0,0,0,0,-16,-2.080000,-0.260000,32.849998,0,0,5,0,0,0
2016-06-14_13-25-18,1465903518.71838,0,0,0,0,0,0,0,0,-15,-2.280000,-0.370000,34.250000,0,0,5,0,0,0
2016-06-14_13-25-18,1465903518.75568,0,0,0,0,0,0,0,0,-15,-2.420000,-0.460000,35.660000,0,0,5,0,0,0
2016-06-14_13-25-18,1465903518.83077,0,0,0,0,0,0,0,0,-15,-2.600000,-0.620000,37.080002,0,0,5,0,0,0
2016-06-14_13-25-18,1465903518.86818,0,0,0,0,0,0,0,0,-15,-2.700000,-0.710000,38.439999,0,0,5,0,0,0
2016-06-14_13-25-18,1465903518.90594,0,0,0,0,0,0,0,0,-16,-2.760000,-0.760000,39.779999,0,0,5,0,0,0
2016-06-14_13-25-19,1465903519.01762,0,0,0,0,0,0,0,0,-15,-2.810000,-0.810000,41.220001,0,0,5,0,0,0
2016-06-14_13-25-19,1465903519.01968,0,0,0,0,0,0,0,0,-16,-2.840000,-0.990000,42.869999,0,0,5,0,0,0
2016-06-14_13-25-19,1465903519.05570,0,0,0,0,0,0,0,0,-16,-2.750000,-1.310000,44.740002,0,0,5,0,0,0
2016-06-14_13-25-19,1465903519.13075,0,0,0,0,0,0,0,0,-16,-2.660000,-1.610000,46.650002,0,0,5,0,0,0
2016-06-14_13-25-19,1465903519.16826,0,0,0,0,0,0,0,0,-16,-2.590000,-1.890000,48.369999,0,0,5,0,0,0
2016-06-14_13-25-19,1465903519.20597,0,0,0,0,0,0,0,0,-15,-2.460000,-2.200000,49.750000,0,0,5,0,0,0
2016-06-14_13-25-19,1465903519.28081,0,0,0,0,0,0,0,0,-15,-2.350000,-2.490000,50.830002,0,0,5,0,0,0
2016-06-14_13-25-19,1465903519.31838,0,0,0,0,0,0,0,0,-16,-2.310000,-2.650000,51.740002,0,0,5,0,0,0
2016-06-14_13-25-19,1465903519.35569,0,0,0,0,1,0,0,0,-15,-2.280000,-2.710000,52.590000,0,0,5,0,0,0
2016-06-14_13-25-19,1465903519.43077,0,0,0,0,0,0,0,0,-15,-2.350000,-2.850000,53.459999,0,0,5,0,0,0
2016-06-14_13-25-19,1465903519.46820,0,0,0,0,0,0,0,0,-16,-2.410000,-2.990000,54.310001,0,0,5,0,0,0
2016-06-14_13-25-19,1465903519.50584,0,0,0,0,0,0,0,0,-16,-2.480000,-3.170000,55.060001,0,0,5,0,0,0
2016-06-14_13-25-19,1465903519.58083,0,0,0,0,0,0,0,0,-15,-2.540000,-3.300000,55.700001,0,0,5,0,0,0
2016-06-14_13-25-19,1465903519.61839,0,0,0,0,0,0,0,0,-16,-2.620000,-3.380000,56.330002,0,0,5,0,0,0
2016-06-14_13-25-19,1465903519.65569,0,0,0,0,0,0,0,0,-15,-2.680000,-3.440000,57.090000,0,0,5,0,0,0
2016-06-14_13-25-19,1465903519.73077,0,0,0,0,0,0,0,0,-15,-2.670000,-3.590000,58.110001,0,0,5,0,0,0
2016-06-14_13-25-19,1465903519.76820,0,0,0,0,0,0,0,0,-16,-2.820000,-3.600000,59.400002,0,0,5,0,0,0
2016-06-14_13-25-19,1465903519.80590,0,0,0,0,0,0,1,0,-15,-3.090000,-3.430000,60.849998,0,0,5,0,0,0
2016-06-14_13-25-19,1465903519.88084,0,0,0,0,0,0,1,0,-16,-3.470000,-3.260000,62.419998,0,0,5,0,0,0
2016-06-14_13-25-19,1465903519.91848,0,0,0,0,0,0,1,0,-15,-3.940000,-2.780000,63.980000,0,0,5,0,0,0
2016-06-14_13-25-19,1465903519.95570,0,0,0,0,0,0,1,0,-16,-4.330000,-2.460000,65.440002,0,0,5,0,0,0
2016-06-14_13-25-20,1465903520.03077,0,0,0,0,0,0,1,0,-15,-4.500000,-2.200000,66.730003,0,0,5,0,0,0
2016-06-14_13-25-20,1465903520.06827,0,0,0,0,0,0,1,0,-15,-4.580000,-2.130000,67.870003,0,0,5,0,0,0
2016-06-14_13-25-20,1465903520.10598,0,0,0,1,0,0,1,0,-15,-4.830000,-2.030000,68.970001,0,0,5,0,0,0
2016-06-14_13-25-20,1465903520.18083,0,0,0,0,0,0,1,0,-16,-4.990000,-1.960000,70.000000,0,0,5,0,0,0
2016-06-14_13-25-20,1465903520.21841,0,0,0,0,0,0,0,0,-16,-5.010000,-1.930000,70.959999,0,0,5,0,0,0
2016-06-14_13-25-20,1465903520.25569,0,0,0,0,0,0,0,0,-16,-4.810000,-1.850000,71.919998,0,0,5,0,0,0
2016-06-14_13-25-20,1465903520.33078,0,0,0,0,0,0,0,0,-15,-4.380000,-1.920000,72.870003,0,0,5,0,0,0
2016-06-14_13-25-20,1465903520.36821,0,0,0,1,0,0,0,0,-16,-3.920000,-2.250000,73.769997,0,0,5,0,0,0
2016-06-14_13-25-20,1465903520.40599,0,0,0,0,0,0,0,0,-15,-3.640000,-2.370000,74.620003,0,0,5,0,0,0
2016-06-14_13-25-20,1465903520.48077,0,0,0,0,0,0,0,0,-16,-3.460000,-2.360000,75.320000,0,0,5,0,0,0
2016-06-14_13-25-20,1465903520.51840,0,0,0,0,0,0,0,0,-15,-3.410000,-2.390000,75.820000,0,0,5,0,0,0
2016-06-14_13-25-20,1465903520.55569,0,0,0,0,0,0,1,0,-15,-3.610000,-2.510000,76.239998,0,0,5,0,0,0
2016-06-14_13-25-20,1465903520.63079,0,0,0,0,0,0,1,0,-16,-3.980000,-2.630000,76.730003,0,0,5,0,0,0
2016-06-14_13-25-20,1465903520.66821,0,0,0,0,0,0,1,0,-16,-4.290000,-2.730000,77.269997,0,0,5,0,0,0
2016-06-14_13-25-20,1465903520.70602,0,0,0,0,0,0,1,0,-16,-4.410000,-2.760000,77.800003,0,0,5,0,0,0
2016-06-14_13-25-20,1465903520.78085,0,0,0,0,0,0,0,0,-15,-4.290000,-2.680000,78.220001,0,0,5,0,0,0
2016-06-14_13-25-20,1465903520.81851,0,0,0,0,0,0,0,0,-15,-4.010000,-2.670000,78.379997,0,0,5,0,0,0
2016-06-14_13-25-20,1465903520.85575,0,0,0,1,0,0,0,0,-15,-3.820000,-2.660000,78.379997,0,0,5,0,0,0
2016-06-14_13-25-20,1465903520.93081,0,0,0,0,0,0,1,0,-15,-3.910000,-2.640000,78.389999,0,0,5,0,0,0
2016-06-14_13-25-20,1465903520.96818,0,0,0,0,0,0,0,0,-16,-4.170000,-2.500000,78.570000,0,0,5,0,0,0
2016-06-14_13-25-21,1465903521.00599,0,0,0,0,0,0,0,0,-16,-4.050000,-2.250000,78.699997,0,0,5,0,0,0
2016-06-14_13-25-21,1465903521.08084,0,0,0,0,0,0,0,0,-15,-3.670000,-2.120000,78.610001,0,0,5,0,0,0
2016-06-14_13-25-21,1465903521.11854,0,0,0,0,0,0,0,0,-15,-3.280000,-2.160000,78.370003,0,0,5,0,0,0
2016-06-14_13-25-21,1465903521.15572,0,0,0,0,0,0,0,0,-16,-2.920000,-2.370000,78.250000,0,0,5,0,0,0
2016-06-14_13-25-21,1465903521.23091,0,0,0,0,0,0,0,0,-15,-2.460000,-2.620000,78.279999,0,0,5,0,0,0
2016-06-14_13-25-21,1465903521.26823,0,0,0,0,0,0,0,0,-15,-2.110000,-2.740000,78.389999,0,0,5,0,0,0
2016-06-14_13-25-21,1465903521.30598,0,0,0,0,0,0,0,0,-16,-2.260000,-2.540000,78.629997,0,0,5,0,0,0
2016-06-14_13-25-21,1465903521.38085,0,0,0,0,0,0,0,0,-16,-2.350000,-2.230000,78.889999,0,0,5,0,0,0
2016-06-14_13-25-21,1465903521.41842,0,0,0,0,0,0,0,0,-15,-2.330000,-2.080000,79.239998,0,0,5,0,0,0
2016-06-14_13-25-21,1465903521.45573,0,0,0,0,0,0,0,0,-16,-2.430000,-2.100000,79.779999,0,0,5,0,0,0
2016-06-14_13-25-21,1465903521.53074,0,0,0,0,0,0,0,0,-15,-2.490000,-2.140000,80.309998,0,0,5,0,0,0
2016-06-14_13-25-21,1465903521.60514,0,0,0,0,0,0,0,0,-15,-2.590000,-2.210000,80.790001,0,0,5,0,0,0
2016-06-14_13-25-21,1465903521.60731,0,0,0,1,0,0,0,0,-16,-2.630000,-2.360000,81.290001,0,0,5,0,0,0
2016-06-14_13-25-21,1465903521.68096,0,0,0,0,0,0,0,0,-15,-2.590000,-2.590000,81.730003,0,0,5,0,0,0
2016-06-14_13-25-21,1465903521.71844,0,0,0,0,0,0,0,0,-16,-2.720000,-2.890000,82.250000,0,0,5,0,0,0
2016-06-14_13-25-21,1465903521.75573,0,0,0,0,0,0,0,0,-16,-2.900000,-3.090000,82.739998,0,0,5,0,0,0
2016-06-14_13-25-21,1465903521.83074,0,0,0,0,0,0,0,0,-16,-3.280000,-3.040000,83.300003,0,0,5,0,0,0
2016-06-14_13-25-21,1465903521.86825,0,0,0,0,0,1,0,0,-16,-3.320000,-3.010000,83.809998,0,0,5,0,0,0
2016-06-14_13-25-21,1465903521.90600,0,0,0,0,0,0,1,0,-15,-3.230000,-3.090000,84.290001,0,0,5,0,0,0
2016-06-14_13-25-21,1465903521.98103,0,0,0,0,0,0,0,0,-16,-3.700000,-3.090000,84.879997,0,0,5,0,0,0
2016-06-14_13-25-22,1465903522.01844,0,0,0,0,0,0,1,0,-16,-3.920000,-3.210000,85.370003,0,0,5,0,0,0
2016-06-14_13-25-22,1465903522.05574,0,0,0,0,0,0,1,0,-16,-4.230000,-3.060000,85.849998,0,0,5,0,0,0
2016-06-14_13-25-22,1465903522.13075,0,0,0,1,0,0,0,0,-16,-4.240000,-3.110000,86.290001,0,0,5,0,0,0
2016-06-14_13-25-22,1465903522.16827,0,0,0,0,0,0,0,0,-16,-3.950000,-3.020000,86.529999,0,0,5,0,0,0
2016-06-14_13-25-22,1465903522.20600,0,0,0,0,0,0,1,0,-15,-3.920000,-2.810000,86.699997,0,0,5,0,0,0
2016-06-14_13-25-22,1465903522.28089,0,0,0,0,0,0,0,0,-17,-4.080000,-2.660000,86.910004,0,0,5,0,0,0
2016-06-14_13-25-22,1465903522.31846,0,0,0,0,0,0,0,0,-16,-3.250000,-2.540000,86.870003,0,0,5,0,0,0
2016-06-14_13-25-22,1465903522.35575,0,0,0,1,0,0,0,0,-14,-2.780000,-2.450000,87.059998,0,0,5,0,0,0
2016-06-14_13-25-22,1465903522.43076,0,0,0,0,0,0,0,0,-17,-3.090000,-2.490000,87.639999,0,0,5,0,0,0
2016-06-14_13-25-22,1465903522.46824,0,0,0,0,0,0,0,-1,-15,-2.750000,-2.660000,88.040001,0,0,5,0,0,0
2016-06-14_13-25-22,1465903522.50600,0,0,0,0,0,0,0,-1,-16,-2.260000,-2.830000,88.250000,0,0,5,0,0,0
2016-06-14_13-25-22,1465903522.58089,0,0,0,0,0,0,0,0,-15,-2.060000,-2.690000,88.290001,0,0,5,0,0,0
2016-06-14_13-25-22,1465903522.61851,0,0,0,0,0,0,0,0,-16,-2.310000,-2.540000,88.290001,0,0,5,0,0,0
2016-06-14_13-25-22,1465903522.65574,0,0,0,0,0,0,0,0,-16,-2.660000,-2.330000,88.309998,0,0,5,0,0,0
2016-06-14_13-25-22,1465903522.73076,0,0,0,0,0,0,0,0,-14,-2.740000,-2.110000,88.309998,0,0,5,0,0,0
2016-06-14_13-25-22,1465903522.76833,0,0,0,0,0,0,0,0,-16,-2.870000,-2.200000,88.360001,0,0,5,0,0,0
2016-06-14_13-25-22,1465903522.80599,0,0,0,0,0,0,0,0,-15,-3.020000,-2.180000,88.339996,0,0,5,0,0,0
2016-06-14_13-25-22,1465903522.88091,0,0,0,0,0,0,0,0,-16,-3.260000,-2.100000,88.250000,0,0,5,0,0,0
2016-06-14_13-25-22,1465903522.91846,0,0,0,0,0,0,0,0,-15,-3.270000,-1.660000,87.930000,0,0,5,0,0,0
2016-06-14_13-25-22,1465903522.95574,0,0,0,0,0,0,0,0,-15,-3.270000,-1.400000,87.540001,0,0,5,0,0,0
2016-06-14_13-25-23,1465903523.03082,0,0,0,0,0,0,0,0,-15,-3.550000,-1.460000,87.370003,0,0,5,0,0,0
2016-06-14_13-25-23,1465903523.06836,0,0,0,0,0,0,0,0,-16,-3.830000,-1.600000,87.379997,0,0,5,0,0,0
2016-06-14_13-25-23,1465903523.10600,0,0,0,1,0,0,0,0,-16,-4.140000,-1.690000,87.570000,0,0,5,0,0,0
2016-06-14_13-25-23,1465903523.18089,0,0,0,0,0,0,0,0,-16,-4.430000,-1.560000,87.800003,0,0,5,0,0,0
2016-06-14_13-25-23,1465903523.21847,0,0,0,0,0,0,0,0,-15,-4.510000,-1.300000,87.860001,0,0,5,0,0,0
2016-06-14_13-25-23,1465903523.25575,0,0,0,0,0,0,0,0,-15,-4.650000,-1.080000,87.839996,0,0,5,0,0,0
2016-06-14_13-25-23,1465903523.33082,0,0,0,0,0,0,0,0,-16,-4.880000,-1.010000,87.820000,0,0,5,0,0,0
2016-06-14_13-25-23,1465903523.36827,0,0,0,0,0,0,0,0,-16,-4.890000,-0.990000,87.760002,0,0,5,0,0,0
2016-06-14_13-25-23,1465903523.40600,0,0,0,0,0,0,0,0,-16,-4.770000,-0.960000,87.580002,0,0,5,0,0,0
2016-06-14_13-25-23,1465903523.51771,0,0,0,0,0,0,0,0,-16,-4.600000,-0.840000,87.320000,0,0,5,0,0,0
2016-06-14_13-25-23,1465903523.51975,0,0,0,0,0,0,0,0,-15,-4.570000,-0.680000,87.120003,0,0,5,0,0,0
2016-06-14_13-25-23,1465903523.55576,0,0,0,0,0,0,0,0,-16,-4.630000,-0.580000,87.029999,0,0,5,0,0,0
2016-06-14_13-25-23,1465903523.63085,0,0,0,0,0,0,0,0,-16,-4.670000,-0.490000,87.050003,0,0,5,0,0,0
2016-06-14_13-25-23,1465903523.66814,0,0,0,0,0,0,0,0,-15,-4.690000,-0.470000,87.129997,0,0,5,0,0,0
2016-06-14_13-25-23,1465903523.70607,0,0,0,0,0,0,0,0,-16,-4.740000,-0.460000,87.169998,0,0,5,0,0,0
2016-06-14_13-25-23,1465903523.78090,0,0,0,0,0,0,0,0,-15,-4.650000,-0.400000,87.089996,0,0,5,0,0,0
2016-06-14_13-25-23,1465903523.81870,0,0,0,0,0,0,0,0,-16,-4.660000,-0.380000,86.940002,0,0,5,0,0,0
2016-06-14_13-25-23,1465903523.85609,0,0,0,0,0,0,0,0,-15,-4.690000,-0.410000,86.849998,0,0,5,0,0,0
2016-06-14_13-25-23,1465903523.93091,0,0,0,0,0,0,0,0,-16,-4.810000,-0.450000,86.940002,0,0,5,0,0,0
2016-06-14_13-25-23,1465903523.96830,0,0,0,0,0,0,0,0,-16,-4.860000,-0.360000,87.019997,0,0,5,0,0,0
2016-06-14_13-25-24,1465903524.00599,0,0,0,0,0,0,0,0,-15,-4.940000,-0.210000,86.970001,0,0,5,0,0,0
2016-06-14_13-25-24,1465903524.08096,0,0,0,0,0,0,0,0,-16,-5.080000,-0.200000,86.849998,0,0,5,0,0,0
2016-06-14_13-25-24,1465903524.11856,0,0,0,0,0,0,0,0,-15,-5.200000,-0.250000,86.730003,0,0,5,0,0,0
2016-06-14_13-25-24,1465903524.15580,0,0,0,0,0,0,0,0,-16,-5.330000,-0.290000,86.650002,0,0,5,0,0,0
2016-06-14_13-25-24,1465903524.23101,0,0,0,0,0,0,0,0,-15,-5.420000,-0.280000,86.620003,0,0,5,0,0,0
2016-06-14_13-25-24,1465903524.26830,0,0,0,0,0,0,0,0,-16,-5.440000,-0.200000,86.589996,0,0,5,0,0,0
2016-06-14_13-25-24,1465903524.30606,0,0,0,0,0,0,0,0,-15,-5.430000,-0.070000,86.470001,0,0,5,0,0,0
2016-06-14_13-25-24,1465903524.38102,0,0,0,0,0,0,0,0,-16,-5.490000,-0.020000,86.330002,0,0,5,0,0,0
2016-06-14_13-25-24,1465903524.41852,0,0,0,0,0,0,0,0,-15,-5.390000,-0.020000,86.139999,0,0,5,0,0,0
2016-06-14_13-25-24,1465903524.45579,0,0,0,0,0,0,0,0,-15,-5.330000,0.000000,85.900002,0,0,5,0,0,0
2016-06-14_13-25-24,1465903524.53107,0,0,0,0,0,0,0,1,-16,-5.360000,0.050000,85.660004,0,0,5,0,0,0
2016-06-14_13-25-24,1465903524.56830,0,0,0,0,0,0,0,0,-16,-5.410000,0.130000,85.550003,0,0,5,0,0,0
2016-06-14_13-25-24,1465903524.60599,0,0,0,0,0,0,0,0,-15,-5.410000,0.110000,85.500000,0,0,5,0,0,0
2016-06-14_13-25-24,1465903524.68086,0,0,0,0,0,0,0,0,-15,-5.410000,0.070000,85.400002,0,0,5,0,0,0
2016-06-14_13-25-24,1465903524.75531,0,0,0,0,0,0,0,0,-15,-5.500000,0.030000,85.290001,0,0,5,0,0,0
2016-06-14_13-25-24,1465903524.75753,0,0,0,0,0,0,0,0,-15,-5.620000,-0.040000,85.300003,0,0,5,0,0,0
2016-06-14_13-25-24,1465903524.83104,0,0,0,0,0,0,0,0,-16,-5.650000,-0.040000,85.360001,0,0,5,0,0,0
2016-06-14_13-25-24,1465903524.86831,0,0,0,0,0,0,0,0,-15,-5.760000,-0.020000,85.440002,0,0,5,0,0,0
2016-06-14_13-25-24,1465903524.90601,0,0,0,0,0,0,0,0,-15,-5.830000,-0.030000,85.529999,0,0,5,0,0,0
2016-06-14_13-25-24,1465903524.98086,0,0,0,0,0,0,0,0,-15,-5.820000,-0.040000,85.559998,0,0,5,0,0,0
2016-06-14_13-25-25,1465903525.01869,0,0,0,0,0,0,0,0,-15,-5.930000,-0.030000,85.529999,0,0,5,0,0,0
2016-06-14_13-25-25,1465903525.05580,0,0,0,0,0,0,0,1,-16,-6.150000,0.000000,85.510002,0,0,5,0,0,0
2016-06-14_13-25-25,1465903525.13108,0,0,0,0,0,0,0,1,-15,-6.410000,0.070000,85.629997,0,0,5,0,0,0
2016-06-14_13-25-25,1465903525.16830,0,0,0,0,0,0,0,1,-15,-6.620000,0.150000,85.919998,0,0,5,0,0,0
2016-06-14_13-25-25,1465903525.20600,0,0,0,0,0,0,1,1,-15,-6.940000,0.270000,86.320000,0,0,5,0,0,0
2016-06-14_13-25-25,1465903525.28091,0,0,0,0,0,0,1,1,-15,-7.720000,0.440000,86.889999,0,0,5,0,0,0
2016-06-14_13-25-25,1465903525.31853,0,0,0,0,0,0,1,1,-16,-8.750000,0.600000,87.540001,0,0,5,0,0,0
2016-06-14_13-25-25,1465903525.35580,0,0,0,0,0,0,1,2,-16,-9.730000,1.060000,88.129997,0,0,5,0,0,0
2016-06-14_13-25-25,1465903525.43108,0,0,0,0,0,0,1,2,-15,-10.660000,1.900000,88.720001,0,0,5,0,0,0
2016-06-14_13-25-25,1465903525.46831,0,0,0,0,0,0,2,2,-15,-11.430000,2.540000,89.370003,0,0,5,0,0,0
2016-06-14_13-25-25,1465903525.50581,0,0,0,0,0,0,2,2,-16,-12.220000,2.950000,90.239998,0,0,5,0,0,0
2016-06-14_13-25-25,1465903525.58089,0,0,0,0,0,0,2,2,-15,-12.560000,3.320000,91.110001,0,0,5,0,0,0
2016-06-14_13-25-25,1465903525.61851,0,0,0,0,0,0,2,1,-15,-12.320000,3.430000,91.769997,0,0,5,0,0,0
2016-06-14_13-25-25,1465903525.65577,0,0,0,0,0,0,1,1,-15,-11.840000,3.310000,92.120003,0,0,5,0,0,0
2016-06-14_13-25-25,1465903525.73110,0,0,0,0,0,0,1,2,-15,-11.380000,3.160000,92.169998,0,0,5,0,0,0
2016-06-14_13-25-25,1465903525.76830,0,0,0,0,0,0,1,2,-15,-11.290000,3.080000,92.230003,0,0,5,0,0,0
2016-06-14_13-25-25,1465903525.80585,0,0,0,0,0,0,1,2,-15,-11.350000,3.080000,92.349998,0,0,5,0,0,0
2016-06-14_13-25-25,1465903525.88085,0,0,0,1,0,0,1,2,-15,-11.540000,3.210000,92.529999,0,0,5,0,0,0
2016-06-14_13-25-25,1465903525.91853,0,0,0,0,0,0,1,2,-15,-11.890000,3.360000,92.839996,0,0,5,0,0,0
2016-06-14_13-25-25,1465903525.95612,0,0,0,0,0,0,1,2,-16,-12.160000,3.620000,93.279999,0,0,5,0,0,0
2016-06-14_13-25-26,1465903526.03112,0,0,0,0,0,0,1,2,-15,-12.220000,3.860000,93.589996,0,0,5,0,0,0
2016-06-14_13-25-26,1465903526.06831,0,0,0,0,0,0,1,2,-15,-12.270000,3.980000,93.750000,0,0,5,0,0,0
2016-06-14_13-25-26,1465903526.10578,0,0,0,0,0,0,1,2,-15,-12.170000,3.990000,93.650002,0,0,5,0,0,0
2016-06-14_13-25-26,1465903526.18090,0,0,0,0,0,0,1,2,-15,-12.100000,3.860000,93.419998,0,0,5,0,0,0
2016-06-14_13-25-26,1465903526.21837,0,0,0,0,0,0,1,2,-15,-12.090000,3.850000,93.220001,0,0,5,0,0,0
2016-06-14_13-25-26,1465903526.25599,0,0,0,0,0,0,1,2,-15,-12.200000,4.010000,93.139999,0,0,5,0,0,0
2016-06-14_13-25-26,1465903526.33111,0,0,0,0,0,0,1,2,-15,-12.330000,4.170000,93.180000,0,0,5,0,0,0
2016-06-14_13-25-26,1465903526.36832,0,0,0,0,0,0,1,2,-16,-12.420000,4.260000,93.239998,0,0,5,0,0,0
2016-06-14_13-25-26,1465903526.40588,0,0,0,0,0,0,1,2,-15,-12.390000,4.320000,93.160004,0,0,5,0,0,0
2016-06-14_13-25-26,1465903526.48091,0,0,0,0,0,0,1,2,-15,-12.520000,4.330000,93.110001,0,0,5,0,0,0
2016-06-14_13-25-26,1465903526.51833,0,0,0,0,0,0,1,2,-15,-12.550000,4.350000,93.040001,0,0,5,0,0,0
2016-06-14_13-25-26,1465903526.55611,0,0,0,0,0,0,1,2,-15,-12.540000,4.290000,93.019997,0,0,5,0,0,0
2016-06-14_13-25-26,1465903526.63108,0,0,0,0,0,0,1,2,-15,-12.490000,4.200000,93.019997,0,0,5,0,0,0
2016-06-14_13-25-26,1465903526.66832,0,0,0,0,0,0,1,2,-15,-12.370000,4.130000,92.970001,0,0,5,0,0,0
2016-06-14_13-25-26,1465903526.70583,0,0,0,0,0,0,1,2,-15,-12.210000,4.010000,92.849998,0,0,5,0,0,0
2016-06-14_13-25-26,1465903526.78085,0,0,0,0,0,0,1,2,-15,-11.990000,3.880000,92.639999,0,0,5,0,0,0
2016-06-14_13-25-26,1465903526.81836,0,0,0,0,0,0,1,2,-15,-11.850000,3.730000,92.480003,0,0,5,0,0,0
2016-06-14_13-25-26,1465903526.85601,0,0,0,0,0,0,1,2,-15,-11.790000,3.550000,92.419998,0,0,5,0,0,0
2016-06-14_13-25-26,1465903526.93108,0,0,0,0,0,0,1,2,-16,-11.730000,3.460000,92.400002,0,0,5,0,0,0
2016-06-14_13-25-26,1465903526.96853,0,0,0,0,0,0,1,2,-15,-11.680000,3.530000,92.370003,0,0,5,0,0,0
2016-06-14_13-25-27,1465903527.00588,0,0,0,0,0,0,1,2,-15,-11.800000,3.690000,92.410004,0,0,5,0,0,0
2016-06-14_13-25-27,1465903527.08100,0,0,0,0,0,0,1,2,-15,-11.890000,3.850000,92.459999,0,0,5,0,0,0
2016-06-14_13-25-27,1465903527.11834,0,0,0,0,0,0,1,2,-15,-11.910000,3.930000,92.519997,0,0,5,0,0,0
2016-06-14_13-25-27,1465903527.15602,0,0,0,0,0,0,1,2,-15,-11.860000,4.000000,92.519997,0,0,5,0,0,0
2016-06-14_13-25-27,1465903527.23100,0,0,0,0,0,0,1,2,-15,-11.800000,4.090000,92.480003,0,0,5,0,0,0
2016-06-14_13-25-27,1465903527.26855,0,0,0,0,0,0,1,2,-15,-11.720000,4.110000,92.360001,0,0,5,0,0,0
2016-06-14_13-25-27,1465903527.30584,0,0,0,0,0,0,1,2,-15,-11.640000,4.070000,92.250000,0,0,5,0,0,0
2016-06-14_13-25-27,1465903527.38091,0,0,0,0,0,0,1,2,-15,-11.620000,4.030000,92.199997,0,0,5,0,0,0
2016-06-14_13-25-27,1465903527.41834,0,0,0,0,0,0,1,2,-15,-11.610000,4.020000,92.220001,0,0,5,0,0,0
2016-06-14_13-25-27,1465903527.45604,0,0,0,0,0,0,1,2,-16,-11.580000,4.050000,92.290001,0,0,5,0,0,0
2016-06-14_13-25-27,1465903527.56777,0,0,0,0,0,0,1,2,-15,-11.520000,4.170000,92.260002,0,0,5,0,0,0
2016-06-14_13-25-27,1465903527.56982,0,0,0,0,0,0,1,2,-15,-11.460000,4.170000,92.180000,0,0,5,0,0,0
2016-06-14_13-25-27,1465903527.60593,0,0,0,0,0,0,1,2,-15,-11.300000,4.210000,92.050003,0,0,5,0,0,0
2016-06-14_13-25-27,1465903527.68092,0,0,0,0,0,0,1,2,-15,-11.130000,4.150000,91.870003,0,0,5,0,0,0
2016-06-14_13-25-27,1465903527.71836,0,0,0,0,0,0,1,2,-15,-11.010000,4.100000,91.709999,0,0,5,0,0,0
2016-06-14_13-25-27,1465903527.79335,0,0,0,0,0,0,1,2,-15,-11.000000,3.990000,91.589996,0,0,5,0,0,0
2016-06-14_13-25-27,1465903527.83092,0,0,0,0,0,0,1,2,-15,-11.070000,3.840000,91.480003,0,0,5,0,0,0
2016-06-14_13-25-27,1465903527.86856,0,0,0,0,0,0,1,2,-15,-11.140000,3.730000,91.300003,0,0,5,0,0,0
2016-06-14_13-25-27,1465903527.90586,0,0,0,0,0,0,1,2,-15,-11.180000,3.720000,91.150002,0,0,5,0,0,0
2016-06-14_13-25-27,1465903527.98112,0,0,0,0,0,0,1,2,-15,-11.230000,3.700000,91.059998,0,0,5,0,0,0
2016-06-14_13-25-28,1465903528.01837,0,0,0,0,0,0,1,2,-15,-11.240000,3.620000,90.989998,0,0,5,0,0,0
2016-06-14_13-25-28,1465903528.05605,0,0,0,0,0,0,1,2,-15,-11.210000,3.550000,90.900002,0,0,5,0,0,0
2016-06-14_13-25-28,1465903528.13092,0,0,0,1,0,0,1,2,-15,-11.250000,3.510000,90.820000,0,0,5,0,0,0
2016-06-14_13-25-28,1465903528.16854,0,0,0,0,0,0,1,2,-15,-11.250000,3.460000,90.790001,0,0,5,0,0,0
2016-06-14_13-25-28,1465903528.20595,0,0,0,0,0,0,1,2,-15,-11.250000,3.430000,90.760002,0,0,5,0,0,0
2016-06-14_13-25-28,1465903528.28116,0,0,0,0,0,0,1,2,-15,-11.280000,3.470000,90.699997,0,0,5,0,0,0
2016-06-14_13-25-28,1465903528.31837,0,0,0,0,0,0,1,2,-15,-11.390000,3.540000,90.730003,0,0,5,0,0,0
2016-06-14_13-25-28,1465903528.39336,0,0,0,0,0,0,1,2,-15,-11.480000,3.550000,90.809998,0,0,5,0,0,0
2016-06-14_13-25-28,1465903528.43093,0,0,0,0,0,0,1,2,-15,-11.540000,3.560000,90.809998,0,0,5,0,0,0
2016-06-14_13-25-28,1465903528.50537,0,0,0,0,0,0,1,2,-15,-11.610000,3.570000,90.690002,0,0,5,0,0,0
2016-06-14_13-25-28,1465903528.50770,0,0,0,0,0,0,1,2,-15,-11.660000,3.550000,90.570000,0,0,5,0,0,0
2016-06-14_13-25-28,1465903528.58115,0,0,0,0,0,0,1,2,-15,-11.610000,3.510000,90.500000,0,0,5,0,0,0
2016-06-14_13-25-28,1465903528.61835,0,0,0,0,0,0,1,2,-15,-11.530000,3.460000,90.389999,0,0,5,0,0,0
2016-06-14_13-25-28,1465903528.69336,0,0,0,0,0,0,1,2,-15,-11.450000,3.450000,90.120003,0,0,5,0,0,0
2016-06-14_13-25-28,1465903528.73119,0,0,0,0,0,0,1,2,-15,-11.480000,3.470000,89.779999,0,0,5,0,0,0
2016-06-14_13-25-28,1465903528.80542,0,0,0,0,0,0,1,2,-15,-11.430000,3.430000,89.379997,0,0,5,0,0,0
2016-06-14_13-25-28,1465903528.80776,0,0,0,0,0,0,1,2,-15,-11.400000,3.330000,89.040001,0,0,5,0,0,0
2016-06-14_13-25-28,1465903528.91787,0,0,0,0,0,0,1,2,-15,-11.450000,3.230000,88.800003,0,0,5,0,0,0
2016-06-14_13-25-28,1465903528.92021,0,0,0,0,0,0,1,2,-15,-11.620000,3.090000,88.709999,0,0,5,0,0,0
2016-06-14_13-25-28,1465903528.95610,0,0,0,0,0,0,1,2,-15,-11.800000,2.950000,88.620003,0,0,5,0,0,0
2016-06-14_13-25-29,1465903529.03095,0,0,0,0,0,0,1,2,-15,-11.970000,2.850000,88.470001,0,0,5,0,0,0
2016-06-14_13-25-29,1465903529.06859,0,0,0,0,0,0,1,2,-15,-12.100000,2.780000,88.309998,0,0,5,0,0,0
2016-06-14_13-25-29,1465903529.10588,0,0,0,0,0,0,1,2,-15,-12.180000,2.720000,88.190002,0,0,5,0,0,0
2016-06-14_13-25-29,1465903529.18109,0,0,0,0,0,0,2,2,-15,-12.410000,2.610000,88.260002,0,0,5,0,0,0
2016-06-14_13-25-29,1465903529.21837,0,0,0,0,0,0,2,2,-16,-12.550000,2.440000,88.379997,0,0,5,0,0,0
2016-06-14_13-25-29,1465903529.25593,0,0,0,0,0,0,2,2,-15,-12.550000,2.320000,88.379997,0,0,5,0,0,0
2016-06-14_13-25-29,1465903529.33094,0,0,0,0,0,0,2,2,-15,-12.530000,2.210000,88.300003,0,0,5,0,0,0
2016-06-14_13-25-29,1465903529.36857,0,0,0,0,0,0,2,2,-15,-12.440000,2.210000,88.129997,0,0,5,0,0,0
2016-06-14_13-25-29,1465903529.40587,0,0,0,0,0,0,2,2,-15,-12.420000,2.220000,88.040001,0,0,5,0,0,0
2016-06-14_13-25-29,1465903529.48115,0,0,0,0,0,0,1,2,-15,-12.400000,2.230000,88.080002,0,0,5,0,0,0
2016-06-14_13-25-29,1465903529.51838,0,0,0,0,0,0,2,2,-15,-12.460000,2.290000,88.199997,0,0,5,0,0,0
2016-06-14_13-25-29,1465903529.55588,0,0,0,0,0,0,2,2,-15,-12.600000,2.380000,88.330002,0,0,5,0,0,0
2016-06-14_13-25-29,1465903529.63093,0,0,0,0,0,0,2,2,-15,-12.670000,2.470000,88.449997,0,0,5,0,0,0
2016-06-14_13-25-29,1465903529.66857,0,0,0,0,0,0,1,2,-15,-12.580000,2.570000,88.540001,0,0,5,0,0,0
2016-06-14_13-25-29,1465903529.70587,0,0,0,0,0,0,1,2,-15,-12.460000,2.620000,88.550003,0,0,5,0,0,0
2016-06-14_13-25-29,1465903529.78119,0,0,0,0,0,0,1,2,-15,-12.430000,2.630000,88.550003,0,0,5,0,0,0
2016-06-14_13-25-29,1465903529.81838,0,0,0,0,0,0,1,2,-15,-12.440000,2.700000,88.589996,0,0,5,0,0,0
2016-06-14_13-25-29,1465903529.85587,0,0,0,0,0,0,1,2,-15,-12.370000,2.710000,88.599998,0,0,5,0,0,0
2016-06-14_13-25-29,1465903529.93098,0,0,0,0,0,0,1,2,-15,-12.190000,2.630000,88.440002,0,0,5,0,0,0
2016-06-14_13-25-29,1465903529.96860,0,0,0,0,0,0,1,2,-15,-12.090000,2.600000,88.169998,0,0,5,0,0,0
2016-06-14_13-25-30,1465903530.00618,0,0,0,0,0,0,1,2,-15,-12.080000,2.620000,87.919998,0,0,5,0,0,0
2016-06-14_13-25-30,1465903530.08113,0,0,0,0,0,0,1,2,-15,-12.010000,2.620000,87.750000,0,0,5,0,0,0
2016-06-14_13-25-30,1465903530.11839,0,0,0,0,0,0,1,2,-15,-11.940000,2.620000,87.620003,0,0,5,0,0,0
2016-06-14_13-25-30,1465903530.15590,0,0,0,0,0,0,1,2,-15,-11.940000,2.670000,87.550003,0,0,5,0,0,0
2016-06-14_13-25-30,1465903530.23101,0,0,0,0,0,0,1,2,-15,-11.850000,2.770000,87.379997,0,0,5,0,0,0
2016-06-14_13-25-30,1465903530.26875,0,0,0,0,0,0,1,2,-15,-11.680000,2.740000,87.089996,0,0,5,0,0,0
2016-06-14_13-25-30,1465903530.30613,0,0,0,0,0,0,1,2,-15,-11.500000,2.680000,86.809998,0,0,5,0,0,0
2016-06-14_13-25-30,1465903530.38114,0,0,0,0,0,0,1,2,-15,-11.400000,2.740000,86.639999,0,0,5,0,0,0
2016-06-14_13-25-30,1465903530.41840,0,0,0,0,0,0,1,2,-15,-11.410000,2.910000,86.620003,0,0,5,0,0,0
2016-06-14_13-25-30,1465903530.45592,0,0,0,0,0,0,1,2,-15,-11.430000,3.050000,86.709999,0,0,5,0,0,0
2016-06-14_13-25-30,1465903530.53096,0,0,0,0,0,0,1,2,-15,-11.410000,3.120000,86.790001,0,0,5,0,0,0
2016-06-14_13-25-30,1465903530.56847,0,0,0,0,0,0,1,2,-15,-11.260000,2.860000,86.690002,0,0,5,0,0,0
2016-06-14_13-25-30,1465903530.60610,0,0,0,0,0,1,1,2,-15,-11.090000,2.390000,86.349998,0,0,5,0,0,0
2016-06-14_13-25-30,1465903530.68133,0,0,0,0,0,0,1,2,-15,-11.070000,1.990000,85.930000,0,0,5,0,0,0
2016-06-14_13-25-30,1465903530.71840,0,0,0,0,0,0,1,2,-15,-11.200000,1.800000,85.699997,0,0,5,0,0,0
2016-06-14_13-25-30,1465903530.75590,0,0,0,0,0,0,1,2,-15,-11.340000,1.900000,85.930000,0,0,5,0,0,0
2016-06-14_13-25-30,1465903530.83102,0,0,0,0,0,0,1,2,-15,-11.260000,2.090000,86.279999,0,0,5,0,0,0
2016-06-14_13-25-30,1465903530.86858,0,0,0,0,0,0,1,2,-15,-11.120000,2.270000,86.400002,0,0,5,0,0,0
2016-06-14_13-25-30,1465903530.90612,0,0,0,0,0,0,1,2,-15,-11.040000,2.370000,86.150002,0,0,5,0,0,0
2016-06-14_13-25-30,1465903530.98117,0,0,0,0,0,0,1,2,-15,-11.050000,2.360000,85.750000,0,0,5,0,0,0
2016-06-14_13-25-31,1465903531.01840,0,0,0,0,0,0,1,2,-15,-10.960000,2.370000,85.400002,0,0,5,0,0,0
2016-06-14_13-25-31,1465903531.05593,0,0,0,0,0,0,1,2,-15,-10.860000,2.550000,85.129997,0,0,5,0,0,0
2016-06-14_13-25-31,1465903531.13093,0,0,0,0,0,0,1,2,-15,-10.790000,2.630000,84.830002,0,0,5,0,0,0
2016-06-14_13-25-31,1465903531.16841,0,0,0,0,0,0,1,2,-15,-10.770000,2.640000,84.580002,0,0,5,0,0,0
2016-06-14_13-25-31,1465903531.20618,0,0,0,0,0,0,1,2,-15,-10.770000,2.680000,84.519997,0,0,5,0,0,0
2016-06-14_13-25-31,1465903531.28124,0,0,0,0,0,0,1,2,-15,-10.740000,2.640000,84.540001,0,0,5,0,0,0
2016-06-14_13-25-31,1465903531.31880,0,0,0,0,0,0,1,2,-15,-10.650000,2.560000,84.400002,0,0,5,0,0,0
2016-06-14_13-25-31,1465903531.35594,0,0,0,0,0,0,1,2,-15,-10.610000,2.460000,84.150002,0,0,5,0,0,0
2016-06-14_13-25-31,1465903531.43099,0,0,0,0,0,0,1,2,-15,-10.650000,2.360000,84.000000,0,0,5,0,0,0
2016-06-14_13-25-31,1465903531.50535,0,0,0,0,0,0,1,2,-16,-10.710000,2.350000,84.000000,0,0,5,0,0,0
2016-06-14_13-25-31,1465903531.50742,0,0,0,0,0,0,1,2,-15,-10.710000,2.420000,84.029999,0,0,5,0,0,0
2016-06-14_13-25-31,1465903531.58123,0,0,0,0,0,0,1,2,-15,-10.690000,2.490000,84.000000,0,0,5,0,0,0
2016-06-14_13-25-31,1465903531.61862,0,0,0,0,0,0,1,2,-15,-10.620000,2.600000,83.889999,0,0,5,0,0,0
2016-06-14_13-25-31,1465903531.65591,0,0,0,0,0,0,1,2,-15,-10.590000,2.720000,83.750000,0,0,5,0,0,0
2016-06-14_13-25-31,1465903531.73100,0,0,0,0,0,0,1,2,-15,-10.560000,2.820000,83.629997,0,0,5,0,0,0
2016-06-14_13-25-31,1465903531.76845,0,0,0,0,0,0,1,2,-15,-10.670000,2.910000,83.650002,0,0,5,0,0,0
2016-06-14_13-25-31,1465903531.80620,0,0,0,0,0,0,1,2,-15,-10.770000,3.020000,83.690002,0,0,5,0,0,0
2016-06-14_13-25-31,1465903531.88103,0,0,0,0,0,0,1,2,-15,-10.860000,3.140000,83.650002,0,0,5,0,0,0
2016-06-14_13-25-31,1465903531.91863,0,0,0,0,0,0,1,2,-15,-10.980000,3.260000,83.589996,0,0,5,0,0,0
2016-06-14_13-25-31,1465903531.95594,0,0,0,0,0,0,1,2,-15,-11.000000,3.360000,83.529999,0,0,5,0,0,0
2016-06-14_13-25-32,1465903532.03100,0,0,0,0,0,0,1,2,-15,-11.010000,3.410000,83.500000,0,0,5,0,0,0
2016-06-14_13-25-32,1465903532.06842,0,0,0,0,0,0,1,2,-15,-11.050000,3.480000,83.459999,0,0,5,0,0,0
2016-06-14_13-25-32,1465903532.10612,0,0,0,0,0,0,1,2,-15,-11.080000,3.580000,83.339996,0,0,5,0,0,0
2016-06-14_13-25-32,1465903532.18094,0,0,0,0,0,0,1,2,-15,-11.130000,3.610000,83.180000,0,0,5,0,0,0
2016-06-14_13-25-32,1465903532.21862,0,0,0,0,0,0,1,2,-15,-11.070000,3.630000,83.000000,0,0,5,0,0,0
2016-06-14_13-25-32,1465903532.25600,0,0,0,0,0,0,1,2,-15,-11.020000,3.590000,82.820000,0,0,5,0,0,0
2016-06-14_13-25-32,1465903532.33099,0,0,0,0,0,0,1,2,-15,-11.010000,3.590000,82.650002,0,0,5,0,0,0
2016-06-14_13-25-32,1465903532.36843,0,0,0,0,0,1,1,2,-15,-11.100000,3.670000,82.589996,0,0,5,0,0,0
2016-06-14_13-25-32,1465903532.40618,0,0,0,0,0,0,1,2,-15,-11.190000,3.780000,82.570000,0,0,5,0,0,0
2016-06-14_13-25-32,1465903532.48100,0,0,0,0,0,0,1,2,-15,-11.290000,3.800000,82.500000,0,0,5,0,0,0
2016-06-14_13-25-32,1465903532.51863,0,0,0,0,0,0,1,2,-15,-11.320000,3.740000,82.339996,0,0,5,0,0,0
2016-06-14_13-25-32,1465903532.55593,0,0,0,0,0,0,1,2,-15,-11.340000,3.750000,82.160004,0,0,5,0,0,0
2016-06-14_13-25-32,1465903532.63129,0,0,0,1,0,0,1,3,-15,-11.370000,3.850000,81.970001,0,0,5,0,0,0
2016-06-14_13-25-32,1465903532.66846,0,0,0,0,0,0,1,3,-15,-11.440000,3.920000,81.830002,0,0,5,0,0,0
2016-06-14_13-25-32,1465903532.70616,0,0,0,0,0,0,1,2,-16,-11.510000,3.850000,81.820000,0,0,5,0,0,0
2016-06-14_13-25-32,1465903532.78093,0,0,0,0,0,0,1,2,-15,-11.490000,3.850000,81.839996,0,0,5,0,0,0
2016-06-14_13-25-32,1465903532.81841,0,0,0,0,0,0,1,2,-15,-11.470000,3.820000,81.779999,0,0,5,0,0,0
2016-06-14_13-25-32,1465903532.85565,0,0,0,0,0,0,1,2,-15,-11.390000,3.730000,81.550003,0,0,5,0,0,0
2016-06-14_13-25-32,1465903532.93118,0,0,0,0,0,0,1,2,-15,-11.420000,3.670000,81.370003,0,0,5,0,0,0
2016-06-14_13-25-32,1465903532.96845,0,0,0,0,0,0,1,3,-15,-11.460000,3.670000,81.309998,0,0,5,0,0,0
2016-06-14_13-25-33,1465903533.00615,0,0,0,0,0,0,1,2,-15,-11.540000,3.650000,81.400002,0,0,5,0,0,0
2016-06-14_13-25-33,1465903533.08102,0,0,0,0,0,0,1,2,-15,-11.570000,3.560000,81.470001,0,0,5,0,0,0
2016-06-14_13-25-33,1465903533.11864,0,0,0,0,0,0,1,2,-15,-11.560000,3.440000,81.389999,0,0,5,0,0,0
2016-06-14_13-25-33,1465903533.15592,0,0,0,0,0,0,1,2,-15,-11.560000,3.400000,81.230003,0,0,5,0,0,0
2016-06-14_13-25-33,1465903533.23124,0,0,0,0,0,0,1,2,-15,-11.560000,3.400000,81.089996,0,0,5,0,0,0
2016-06-14_13-25-33,1465903533.26846,0,0,0,0,0,0,1,2,-15,-11.520000,3.410000,81.050003,0,0,5,0,0,0
2016-06-14_13-25-33,1465903533.30616,0,0,0,0,0,0,1,2,-16,-11.420000,3.450000,81.059998,0,0,5,0,0,0
2016-06-14_13-25-33,1465903533.38099,0,0,0,0,0,0,1,2,-15,-11.300000,3.610000,80.980003,0,0,5,0,0,0
2016-06-14_13-25-33,1465903533.41875,0,0,0,0,0,0,1,2,-15,-11.190000,3.600000,80.820000,0,0,5,0,0,0
2016-06-14_13-25-33,1465903533.45600,0,0,0,0,0,0,1,2,-15,-10.980000,3.470000,80.620003,0,0,5,0,0,0
2016-06-14_13-25-33,1465903533.53122,0,0,0,0,0,0,1,2,-15,-10.840000,3.400000,80.440002,0,0,5,0,0,0
2016-06-14_13-25-33,1465903533.56845,0,0,0,0,0,0,1,2,-15,-10.840000,3.470000,80.330002,0,0,5,0,0,0
2016-06-14_13-25-33,1465903533.60629,0,0,0,0,0,0,1,2,-15,-10.940000,3.620000,80.290001,0,0,5,0,0,0
2016-06-14_13-25-33,1465903533.68103,0,0,0,0,0,0,1,2,-15,-10.970000,3.670000,80.269997,0,0,5,0,0,0
2016-06-14_13-25-33,1465903533.71868,0,0,0,0,0,0,1,2,-15,-10.930000,3.710000,80.279999,0,0,5,0,0,0
2016-06-14_13-25-33,1465903533.75595,0,0,0,0,0,0,1,2,-15,-10.820000,3.790000,80.199997,0,0,5,0,0,0
2016-06-14_13-25-33,1465903533.83114,0,0,0,0,0,0,1,2,-15,-10.680000,3.870000,79.970001,0,0,5,0,0,0
2016-06-14_13-25-33,1465903533.86845,0,0,0,0,0,0,1,2,-15,-10.570000,3.810000,79.699997,0,0,5,0,0,0
2016-06-14_13-25-33,1465903533.90615,0,0,0,0,0,0,1,2,-15,-10.480000,3.760000,79.559998,0,0,5,0,0,0
2016-06-14_13-25-33,1465903533.98101,0,0,0,0,0,0,1,2,-15,-10.360000,3.770000,79.480003,0,0,5,0,0,0
2016-06-14_13-25-34,1465903534.01866,0,0,0,0,0,0,1,2,-15,-10.230000,3.770000,79.379997,0,0,5,0,0,0
2016-06-14_13-25-34,1465903534.05594,0,0,0,0,0,0,1,2,-15,-10.040000,3.670000,79.199997,0,0,5,0,0,0
2016-06-14_13-25-34,1465903534.13118,0,0,0,0,0,0,1,2,-15,-10.020000,3.600000,79.099998,0,0,5,0,0,0
2016-06-14_13-25-34,1465903534.16845,0,0,0,0,0,0,1,2,-15,-10.080000,3.480000,79.089996,0,0,5,0,0,0
2016-06-14_13-25-34,1465903534.20599,0,0,0,0,0,0,1,2,-15,-10.080000,3.320000,79.120003,0,0,5,0,0,0
2016-06-14_13-25-34,1465903534.28103,0,0,0,0,0,0,1,2,-15,-9.950000,3.190000,79.059998,0,0,5,0,0,0
2016-06-14_13-25-34,1465903534.31867,0,0,0,0,0,0,1,2,-15,-9.860000,3.130000,79.000000,0,0,5,0,0,0
2016-06-14_13-25-34,1465903534.35601,0,0,0,0,0,0,1,2,-15,-9.900000,3.170000,79.029999,0,0,5,0,0,0
2016-06-14_13-25-34,1465903534.43118,0,0,0,0,0,0,1,2,-15,-9.910000,3.180000,78.989998,0,0,5,0,0,0
2016-06-14_13-25-34,1465903534.46850,0,0,0,0,0,0,1,2,-15,-9.850000,3.030000,78.790001,0,0,5,0,0,0
2016-06-14_13-25-34,1465903534.50587,0,0,0,0,0,0,1,2,-15,-9.850000,2.830000,78.629997,0,0,5,0,0,0
2016-06-14_13-25-34,1465903534.58106,0,0,0,0,0,0,1,2,-15,-10.000000,2.550000,78.540001,0,0,5,0,0,0
2016-06-14_13-25-34,1465903534.61869,0,0,0,0,0,0,1,2,-15,-10.090000,2.190000,78.370003,0,0,5,0,0,0
2016-06-14_13-25-34,1465903534.65611,0,0,0,0,0,0,1,2,-15,-10.050000,1.850000,78.080002,0,0,5,0,0,0
2016-06-14_13-25-34,1465903534.73127,0,0,0,0,0,0,1,2,-15,-9.970000,1.610000,77.709999,0,0,5,0,0,0
2016-06-14_13-25-34,1465903534.76841,0,0,0,0,0,0,1,2,-15,-9.930000,1.510000,77.379997,0,0,5,0,0,0
2016-06-14_13-25-34,1465903534.80598,0,0,0,0,0,0,1,2,-15,-10.020000,1.470000,77.209999,0,0,5,0,0,0
2016-06-14_13-25-34,1465903534.88109,0,0,0,0,0,0,1,2,-15,-10.140000,1.490000,77.180000,0,0,5,0,0,0
2016-06-14_13-25-34,1465903534.91866,0,0,0,0,0,0,1,2,-15,-10.310000,1.350000,77.190002,0,0,5,0,0,0
2016-06-14_13-25-34,1465903534.95617,0,0,0,0,0,0,1,1,-15,-10.400000,1.110000,77.080002,0,0,5,0,0,0
2016-06-14_13-25-35,1465903535.03126,0,0,0,0,0,0,1,2,-15,-10.380000,0.960000,76.800003,0,0,5,0,0,0
2016-06-14_13-25-35,1465903535.06848,0,0,0,0,0,0,1,2,-15,-10.390000,0.910000,76.459999,0,0,5,0,0,0
2016-06-14_13-25-35,1465903535.10597,0,0,0,0,0,0,1,2,-15,-10.380000,0.900000,76.139999,0,0,5,0,0,0
2016-06-14_13-25-35,1465903535.18107,0,0,0,0,0,0,1,2,-15,-10.380000,0.890000,75.959999,0,0,5,0,0,0
2016-06-14_13-25-35,1465903535.21850,0,0,0,0,0,0,1,2,-15,-10.290000,0.850000,75.870003,0,0,5,0,0,0
2016-06-14_13-25-35,1465903535.25619,0,0,0,0,0,0,1,2,-15,-10.210000,0.840000,75.800003,0,0,5,0,0,0
2016-06-14_13-25-35,1465903535.33143,0,0,0,0,0,0,1,2,-15,-10.120000,0.770000,75.690002,0,0,5,0,0,0
2016-06-14_13-25-35,1465903535.36847,0,0,0,0,0,0,1,2,-15,-10.060000,0.700000,75.620003,0,0,5,0,0,0
2016-06-14_13-25-35,1465903535.40599,0,0,0,0,0,0,1,2,-15,-10.030000,0.620000,75.660004,0,0,5,0,0,0
2016-06-14_13-25-35,1465903535.48105,0,0,0,0,0,0,1,2,-15,-10.070000,0.630000,75.779999,0,0,5,0,0,0
2016-06-14_13-25-35,1465903535.51853,0,0,0,0,0,0,1,2,-15,-10.170000,0.660000,75.959999,0,0,5,0,0,0
2016-06-14_13-25-35,1465903535.55618,0,0,0,0,0,0,1,1,-16,-10.250000,0.620000,76.180000,0,0,5,0,0,0
2016-06-14_13-25-35,1465903535.63125,0,0,0,0,0,0,1,1,-15,-10.160000,0.670000,76.269997,0,0,5,0,0,0
2016-06-14_13-25-35,1465903535.66850,0,0,0,0,0,0,1,1,-15,-10.110000,0.650000,76.199997,0,0,5,0,0,0
2016-06-14_13-25-35,1465903535.70596,0,0,0,0,0,0,1,2,-15,-10.140000,0.680000,76.070000,0,0,5,0,0,0
2016-06-14_13-25-35,1465903535.78109,0,0,0,0,0,0,1,1,-16,-10.160000,0.850000,75.940002,0,0,5,0,0,0
2016-06-14_13-25-35,1465903535.81850,0,0,0,0,0,0,1,1,-15,-9.890000,0.910000,75.599998,0,0,5,0,0,0
2016-06-14_13-25-35,1465903535.85631,0,0,0,0,0,0,1,2,-15,-9.780000,0.940000,75.209999,0,0,5,0,0,0
2016-06-14_13-25-35,1465903535.93129,0,0,0,0,0,0,1,2,-15,-9.870000,1.090000,74.949997,0,0,5,0,0,0
2016-06-14_13-25-35,1465903535.96848,0,0,0,0,0,0,1,2,-15,-10.150000,1.210000,74.839996,0,0,5,0,0,0
2016-06-14_13-25-36,1465903536.00599,0,0,0,0,0,0,1,2,-15,-10.330000,1.250000,74.779999,0,0,5,0,0,0
2016-06-14_13-25-36,1465903536.08108,0,0,0,0,0,0,1,2,-15,-10.520000,1.240000,74.809998,0,0,5,0,0,0
2016-06-14_13-25-36,1465903536.11850,0,0,0,0,0,0,1,2,-15,-10.720000,1.240000,74.930000,0,0,5,0,0,0
2016-06-14_13-25-36,1465903536.15620,0,0,0,0,0,0,1,2,-15,-10.860000,1.210000,74.959999,0,0,5,0,0,0
2016-06-14_13-25-36,1465903536.23126,0,0,0,0,0,0,1,2,-15,-11.120000,1.060000,74.910004,0,0,5,0,0,0
2016-06-14_13-25-36,1465903536.26870,0,0,0,0,0,0,2,2,-15,-11.370000,1.000000,74.820000,0,0,5,0,0,0
2016-06-14_13-25-36,1465903536.30605,0,0,0,0,0,0,2,2,-15,-11.610000,0.930000,74.769997,0,0,5,0,0,0
2016-06-14_13-25-36,1465903536.38126,0,0,0,0,0,0,2,2,-15,-11.610000,0.890000,74.739998,0,0,5,0,0,0
2016-06-14_13-25-36,1465903536.41849,0,0,0,0,0,0,2,2,-15,-11.460000,0.840000,74.599998,0,0,5,0,0,0
2016-06-14_13-25-36,1465903536.45579,0,0,0,0,0,0,1,2,-15,-11.360000,0.740000,74.370003,0,0,5,0,0,0
2016-06-14_13-25-36,1465903536.53103,0,0,0,0,0,0,1,2,-15,-11.290000,0.710000,74.110001,0,0,5,0,0,0
2016-06-14_13-25-36,1465903536.56887,0,0,0,0,0,0,1,2,-15,-11.210000,0.630000,73.930000,0,0,5,0,0,0
2016-06-14_13-25-36,1465903536.60599,0,0,0,0,0,0,1,2,-15,-11.180000,0.450000,73.809998,0,0,5,0,0,0
2016-06-14_13-25-36,1465903536.68108,0,0,0,0,0,0,1,2,-15,-11.150000,0.390000,73.669998,0,0,5,0,0,0
2016-06-14_13-25-36,1465903536.71850,0,0,0,0,0,0,2,1,-15,-11.090000,0.330000,73.440002,0,0,5,0,0,0
2016-06-14_13-25-36,1465903536.75619,0,0,0,0,0,0,1,2,-15,-11.050000,0.270000,73.239998,0,0,5,0,0,0
2016-06-14_13-25-36,1465903536.83112,0,0,0,0,0,0,1,2,-15,-10.920000,0.380000,73.110001,0,0,5,0,0,0
2016-06-14_13-25-36,1465903536.86870,0,0,0,0,0,0,1,2,-15,-10.940000,0.550000,73.059998,0,0,5,0,0,0
2016-06-14_13-25-36,1465903536.90601,0,0,0,0,0,0,1,2,-15,-10.890000,0.660000,72.949997,0,0,5,0,0,0
2016-06-14_13-25-36,1465903536.98103,0,0,0,0,0,0,1,2,-15,-10.830000,0.650000,72.809998,0,0,5,0,0,0
2016-06-14_13-25-37,1465903537.01852,0,0,0,0,0,0,1,2,-15,-10.850000,0.580000,72.760002,0,0,5,0,0,0
2016-06-14_13-25-37,1465903537.05618,0,0,0,0,0,0,1,2,-15,-10.910000,0.640000,72.790001,0,0,5,0,0,0
2016-06-14_13-25-37,1465903537.13112,0,0,0,0,0,0,1,2,-15,-11.010000,0.700000,72.820000,0,0,5,0,0,0
2016-06-14_13-25-37,1465903537.16874,0,0,0,0,0,0,1,2,-15,-11.050000,0.730000,72.790001,0,0,5,0,0,0
2016-06-14_13-25-37,1465903537.20602,0,0,0,0,0,0,1,2,-15,-11.010000,0.740000,72.750000,0,0,5,0,0,0
2016-06-14_13-25-37,1465903537.28102,0,0,0,0,0,0,1,2,-15,-11.050000,0.640000,72.809998,0,0,5,0,0,0
2016-06-14_13-25-37,1465903537.35544,0,0,0,0,0,0,1,2,-15,-11.110000,0.590000,72.900002,0,0,5,0,0,0
2016-06-14_13-25-37,1465903537.35748,0,0,0,0,0,0,2,2,-15,-11.120000,0.570000,73.050003,0,0,5,0,0,0
2016-06-14_13-25-37,1465903537.43111,0,0,0,0,0,0,2,1,-15,-11.150000,0.540000,73.300003,0,0,5,0,0,0
2016-06-14_13-25-37,1465903537.46872,0,0,0,0,0,0,1,1,-16,-11.100000,0.560000,73.379997,0,0,5,0,0,0
2016-06-14_13-25-37,1465903537.50602,0,0,0,0,0,0,1,2,-15,-10.930000,0.630000,73.139999,0,0,5,0,0,0
2016-06-14_13-25-37,1465903537.58123,0,0,0,0,0,0,1,2,-15,-10.800000,0.670000,72.730003,0,0,5,0,0,0
2016-06-14_13-25-37,1465903537.61853,0,0,0,0,0,0,1,2,-15,-10.660000,0.680000,72.400002,0,0,5,0,0,0
2016-06-14_13-25-37,1465903537.65622,0,0,0,0,0,0,1,2,-15,-10.480000,0.640000,72.269997,0,0,5,0,0,0
2016-06-14_13-25-37,1465903537.73110,0,0,0,0,0,0,1,1,-15,-10.260000,0.570000,72.190002,0,0,5,0,0,0
2016-06-14_13-25-37,1465903537.76872,0,0,0,0,0,0,1,1,-15,-10.120000,0.580000,72.080002,0,0,5,0,0,0
2016-06-14_13-25-37,1465903537.80602,0,0,0,0,0,0,1,2,-15,-10.000000,0.730000,71.910004,0,0,5,0,0,0
2016-06-14_13-25-37,1465903537.88124,0,0,0,0,0,0,1,2,-15,-9.910000,0.960000,71.680000,0,0,5,0,0,0
2016-06-14_13-25-37,1465903537.91852,0,0,0,0,0,0,1,2,-15,-9.730000,1.130000,71.449997,0,0,5,0,0,0
2016-06-14_13-25-37,1465903537.95625,0,0,0,0,0,0,1,2,-15,-9.470000,1.250000,71.339996,0,0,5,0,0,0
2016-06-14_13-25-38,1465903538.03112,0,0,0,0,0,0,1,2,-15,-9.240000,1.330000,71.370003,0,0,5,0,0,0
2016-06-14_13-25-38,1465903538.06873,0,0,0,0,0,0,1,2,-15,-8.970000,1.410000,71.389999,0,0,5,0,0,0
2016-06-14_13-25-38,1465903538.10603,0,0,0,0,0,0,1,2,-15,-8.780000,1.460000,71.379997,0,0,5,0,0,0
2016-06-14_13-25-38,1465903538.18133,0,0,0,0,0,0,1,2,-15,-8.670000,1.440000,71.480003,0,0,5,0,0,0
2016-06-14_13-25-38,1465903538.21853,0,0,0,0,0,0,1,2,-15,-8.650000,1.340000,71.809998,0,0,5,0,0,0
2016-06-14_13-25-38,1465903538.29355,0,0,0,0,0,0,1,1,-15,-8.620000,1.230000,72.300003,0,0,5,0,0,0
2016-06-14_13-25-38,1465903538.36797,0,0,0,0,0,0,1,1,-15,-8.520000,1.190000,72.790001,0,0,5,0,0,0
2016-06-14_13-25-38,1465903538.37001,0,0,0,0,0,0,1,1,-15,-8.390000,1.250000,73.139999,0,0,5,0,0,0
2016-06-14_13-25-38,1465903538.40606,0,0,0,0,0,0,1,1,-15,-8.270000,1.380000,73.379997,0,0,5,0,0,0
2016-06-14_13-25-38,1465903538.48135,0,0,0,0,0,0,0,1,-16,-8.190000,1.550000,73.629997,0,0,5,0,0,0
2016-06-14_13-25-38,1465903538.51854,0,0,0,0,0,0,0,2,-15,-8.130000,1.810000,73.889999,0,0,5,0,0,0
2016-06-14_13-25-38,1465903538.55624,0,0,0,0,0,0,0,2,-15,-8.160000,2.010000,74.199997,0,0,5,0,0,0
2016-06-14_13-25-38,1465903538.63122,0,0,0,0,0,0,0,2,-15,-8.110000,2.080000,74.489998,0,0,5,0,0,0
2016-06-14_13-25-38,1465903538.66891,0,0,0,0,0,0,0,1,-15,-8.090000,2.090000,74.790001,0,0,5,0,0,0
2016-06-14_13-25-38,1465903538.70612,0,0,0,0,0,0,0,1,-15,-8.100000,2.080000,75.059998,0,0,5,0,0,0
2016-06-14_13-25-38,1465903538.78133,0,0,0,0,0,0,0,1,-15,-8.120000,2.090000,75.309998,0,0,5,0,0,0
2016-06-14_13-25-38,1465903538.81848,0,0,0,0,0,0,0,2,-15,-8.040000,2.190000,75.599998,0,0,5,0,0,0
2016-06-14_13-25-38,1465903538.85627,0,0,0,1,0,0,0,2,-15,-8.030000,2.620000,76.440002,0,0,5,0,0,0
2016-06-14_13-25-38,1465903538.93113,0,0,0,0,0,0,0,1,-15,-8.140000,3.590000,77.750000,0,0,5,0,0,0
2016-06-14_13-25-38,1465903538.96875,0,0,0,0,0,0,0,2,-15,-8.350000,4.910000,78.940002,0,0,5,0,0,0
2016-06-14_13-25-39,1465903539.00605,0,0,0,0,0,0,0,3,-15,-8.720000,5.650000,79.889999,0,0,5,0,0,0
2016-06-14_13-25-39,1465903539.08135,0,0,0,0,0,0,0,3,-15,-9.140000,6.130000,80.830002,0,0,5,0,0,0
2016-06-14_13-25-39,1465903539.11853,0,0,0,0,0,0,0,2,-15,-9.630000,6.640000,81.790001,0,0,5,0,0,0
2016-06-14_13-25-39,1465903539.15608,0,0,0,0,0,0,0,3,-15,-10.020000,7.160000,82.669998,0,0,5,0,0,0
2016-06-14_13-25-39,1465903539.23113,0,0,0,0,0,0,0,3,-15,-10.270000,7.830000,83.470001,0,0,5,0,0,0
2016-06-14_13-25-39,1465903539.26878,0,0,0,0,0,0,0,3,-15,-10.330000,8.500000,84.129997,0,0,5,0,0,0
2016-06-14_13-25-39,1465903539.30605,0,0,0,0,0,0,0,3,-15,-10.360000,9.070000,84.699997,0,0,5,0,0,0
2016-06-14_13-25-39,1465903539.38152,170,62,0,0,0,1,0,3,-15,-10.460000,9.450000,85.220001,0,0,5,0,0,0
2016-06-14_13-25-39,1465903539.41856,0,0,0,0,0,0,0,4,-15,-10.640000,9.650000,85.769997,0,0,5,0,0,0
2016-06-14_13-25-39,1465903539.45608,0,0,0,0,0,0,0,4,-15,-10.850000,9.850000,86.410004,0,0,5,0,0,0
2016-06-14_13-25-39,1465903539.53115,0,0,0,0,0,0,0,3,-15,-11.020000,9.980000,87.110001,0,0,5,0,0,0
2016-06-14_13-25-39,1465903539.56877,0,0,0,0,0,0,0,3,-15,-11.130000,10.150000,87.779999,0,0,5,0,0,0
2016-06-14_13-25-39,1465903539.60606,0,0,0,0,0,0,0,3,-15,-11.160000,10.440000,88.320000,0,0,5,0,0,0
2016-06-14_13-25-39,1465903539.68134,0,0,0,0,0,0,0,4,-15,-11.260000,10.790000,88.779999,0,0,5,0,0,0
2016-06-14_13-25-39,1465903539.71878,0,0,0,0,0,0,0,4,-15,-11.280000,11.170000,89.139999,0,0,5,0,0,0
2016-06-14_13-25-39,1465903539.75606,0,0,0,0,0,0,0,4,-15,-11.270000,11.490000,89.430000,0,0,5,0,0,0
2016-06-14_13-25-39,1465903539.83115,0,0,0,0,0,0,0,4,-15,-11.310000,11.820000,89.599998,0,0,5,0,0,0
2016-06-14_13-25-39,1465903539.90556,0,0,0,0,0,0,0,4,-15,-11.380000,12.250000,89.750000,0,0,5,0,0,0
2016-06-14_13-25-39,1465903539.90777,0,0,0,0,0,0,0,4,-15,-11.340000,12.820000,89.970001,0,0,5,0,0,0
2016-06-14_13-25-39,1465903539.98136,0,0,0,0,0,0,0,4,-15,-11.250000,13.370000,90.220001,0,0,5,0,0,0
2016-06-14_13-25-40,1465903540.01856,0,0,0,0,0,0,0,4,-15,-11.280000,13.840000,90.540001,0,0,5,0,0,0
2016-06-14_13-25-40,1465903540.05606,0,0,0,0,0,0,0,5,-15,-11.370000,14.200000,90.970001,0,0,5,0,0,0
2016-06-14_13-25-40,1465903540.13116,0,0,0,0,0,0,0,5,-14,-11.510000,14.740000,91.620003,0,0,5,0,0,0
2016-06-14_13-25-40,1465903540.16896,0,0,0,0,0,0,0,5,-15,-11.820000,15.400000,92.419998,0,0,5,0,0,0
2016-06-14_13-25-40,1465903540.20629,0,0,0,0,0,0,0,5,-14,-12.270000,15.860000,93.099998,0,0,5,0,0,0
2016-06-14_13-25-40,1465903540.31808,0,0,0,0,0,0,0,5,-15,-12.800000,15.580000,93.720001,0,0,5,0,0,0
2016-06-14_13-25-40,1465903540.32022,0,0,0,0,0,0,0,5,-15,-13.170000,15.270000,94.269997,0,0,5,0,0,0
2016-06-14_13-25-40,1465903540.35618,0,0,0,1,0,0,0,5,-14,-13.540000,15.600000,94.849998,0,0,5,0,0,0
2016-06-14_13-25-40,1465903540.43116,0,0,0,0,0,0,0,5,-14,-13.960000,16.299999,95.379997,0,0,5,0,0,0
2016-06-14_13-25-40,1465903540.46880,0,0,0,0,0,0,0,6,-15,-14.300000,17.100000,95.790001,0,0,5,0,0,0
2016-06-14_13-25-40,1465903540.50641,0,0,0,0,0,0,0,6,-14,-14.330000,17.840000,95.830002,0,0,5,0,0,0
2016-06-14_13-25-40,1465903540.58136,0,0,0,0,0,0,0,6,-14,-14.210000,18.430000,95.500000,0,0,5,0,0,0
2016-06-14_13-25-40,1465903540.61858,0,0,0,0,0,0,0,6,-14,-14.190000,18.820000,95.120003,0,0,5,0,0,0
2016-06-14_13-25-40,1465903540.65607,0,0,0,0,0,0,0,6,-14,-14.140000,19.120001,94.849998,0,0,5,0,0,0
2016-06-14_13-25-40,1465903540.73116,0,0,0,0,0,0,0,6,-14,-14.090000,19.410000,94.739998,0,0,5,0,0,0
2016-06-14_13-25-40,1465903540.76858,0,0,0,0,0,0,0,6,-14,-13.820000,19.709999,94.540001,0,0,5,0,0,0
2016-06-14_13-25-40,1465903540.80641,0,0,0,0,0,0,0,6,-14,-13.520000,19.870001,94.180000,0,0,5,0,0,0
2016-06-14_13-25-40,1465903540.88137,0,0,0,1,0,0,0,6,-14,-13.250000,19.900000,93.769997,0,0,5,0,0,0
2016-06-14_13-25-40,1465903540.91859,0,0,0,0,0,0,0,6,-14,-13.060000,19.910000,93.330002,0,0,5,0,0,0
2016-06-14_13-25-40,1465903540.95608,0,0,0,0,0,0,0,6,-14,-13.010000,19.840000,92.870003,0,0,5,0,0,0
2016-06-14_13-25-41,1465903541.03117,0,0,0,0,0,0,0,6,-14,-13.020000,19.740000,92.529999,0,0,5,0,0,0
2016-06-14_13-25-41,1465903541.06859,0,0,0,0,0,0,0,6,-14,-12.960000,19.480000,92.239998,0,0,5,0,0,0
2016-06-14_13-25-41,1465903541.10626,0,0,0,1,0,0,0,6,-14,-12.850000,19.350000,91.980003,0,0,5,0,0,0
2016-06-14_13-25-41,1465903541.18136,0,0,0,0,0,0,0,5,-14,-12.630000,19.200001,91.830002,0,0,5,0,0,0
2016-06-14_13-25-41,1465903541.21879,0,0,0,0,0,0,0,5,-14,-12.510000,19.059999,91.680000,0,0,5,0,0,0
2016-06-14_13-25-41,1465903541.25611,0,0,0,0,0,0,0,6,-14,-12.540000,19.240000,91.489998,0,0,5,0,0,0
2016-06-14_13-25-41,1465903541.33122,0,0,0,0,0,0,0,6,-14,-12.460000,19.490000,91.430000,0,0,5,0,0,0
2016-06-14_13-25-41,1465903541.36862,0,0,0,0,0,0,0,6,-14,-12.320000,19.520000,91.529999,0,0,5,0,0,0
2016-06-14_13-25-41,1465903541.40629,0,0,0,0,0,0,0,6,-14,-12.290000,19.389999,91.589996,0,0,5,0,0,0
2016-06-14_13-25-41,1465903541.48137,0,0,0,0,0,0,0,6,-14,-12.320000,19.160000,91.589996,0,0,5,0,0,0
2016-06-14_13-25-41,1465903541.51880,0,0,0,0,0,0,0,6,-14,-12.300000,19.020000,91.559998,0,0,5,0,0,0
