date,epoch_time,blink_speed,blink_strength,eye_move_up,eye_move_down,eye_move_left,eye_move_right,acc_x,acc_y,acc_z,roll,pitch,yaw,is_walking,fit_error,power_left,event,segment,app_state
2016-06-14_13-26-22,1465903582.40518,0,0,0,0,0,0,0,1,-18,3.160000,2.640000,334.529999,0,0,5,0,1,0
2016-06-14_13-26-22,1465903582.43210,0,0,0,0,0,0,-1,1,-17,3.070000,1.950000,333.519989,0,0,5,0,1,0
2016-06-14_13-26-22,1465903582.46971,0,0,0,0,0,0,-1,0,-18,2.710000,0.750000,333.000000,0,0,5,0,1,0
2016-06-14_13-26-22,1465903582.54469,0,0,0,0,0,0,-1,-1,-17,3.090000,-0.580000,332.869995,0,0,5,0,1,0
2016-06-14_13-26-22,1465903582.58207,0,0,0,0,0,0,-2,-3,-14,3.570000,-1.250000,333.049988,0,0,5,0,1,0
2016-06-14_13-26-22,1465903582.61970,0,0,0,0,0,0,-2,-3,-11,3.760000,-1.110000,332.399994,0,0,5,0,1,0
2016-06-14_13-26-22,1465903582.69441,0,0,0,0,0,0,-2,-3,-11,2.620000,-0.120000,329.929993,0,0,5,0,1,0
2016-06-14_13-26-22,1465903582.73203,0,0,0,0,0,0,0,-2,-11,1.040000,1.200000,325.399994,1,0,5,0,1,0
2016-06-14_13-26-22,1465903582.76968,0,0,0,0,0,0,1,-1,-13,-0.340000,1.880000,318.959991,0,0,5,0,1,0
2016-06-14_13-26-22,1465903582.84452,0,0,0,0,0,0,0,0,-16,-1.570000,1.410000,312.500000,0,0,5,0,1,0
2016-06-14_13-26-22,1465903582.88204,0,0,0,0,0,0,0,0,-23,-1.740000,0.790000,306.420013,0,0,5,0,1,0
2016-06-14_13-26-22,1465903582.91972,0,0,0,0,0,0,0,2,-20,-1.640000,1.470000,301.279999,0,0,5,0,1,0
2016-06-14_13-26-22,1465903582.99442,0,0,0,0,0,0,0,1,-21,-2.090000,1.670000,297.709991,0,0,5,0,1,0
2016-06-14_13-26-23,1465903583.03202,0,0,0,0,0,0,2,2,-13,-2.050000,1.110000,294.890015,0,0,5,0,1,0
2016-06-14_13-26-23,1465903583.06967,0,0,0,0,0,0,4,3,-13,-1.960000,0.720000,292.709991,0,0,5,0,1,0
2016-06-14_13-26-23,1465903583.14455,0,0,0,0,0,0,5,3,-15,-1.890000,0.860000,291.250000,0,0,5,0,1,0
2016-06-14_13-26-23,1465903583.18204,0,0,0,0,0,0,4,2,-16,-1.960000,1.010000,290.329987,1,0,5,0,1,0
2016-06-14_13-26-23,1465903583.21959,0,0,0,0,0,0,3,1,-12,-1.860000,1.080000,289.440002,0,0,5,0,1,0
2016-06-14_13-26-23,1465903583.29443,0,0,0,0,0,0,2,0,-11,-1.370000,0.600000,288.589996,0,0,5,0,1,0
2016-06-14_13-26-23,1465903583.33202,0,0,0,0,0,0,2,-1,-11,-0.310000,-0.480000,287.480011,0,0,5,0,1,0
2016-06-14_13-26-23,1465903583.36968,0,0,0,0,0,0,2,0,-12,1.300000,-1.410000,285.510010,0,0,5,0,1,0
2016-06-14_13-26-23,1465903583.44459,0,0,0,0,0,0,1,0,-16,2.120000,-0.890000,283.720001,0,0,5,0,1,0
2016-06-14_13-26-23,1465903583.48205,0,0,0,0,0,0,1,0,-19,2.600000,-0.050000,282.880005,0,0,5,0,1,0
2016-06-14_13-26-23,1465903583.51961,0,0,0,0,0,0,1,0,-19,2.850000,-0.010000,282.890015,0,0,5,0,1,0
2016-06-14_13-26-23,1465903583.59444,0,0,0,0,0,0,0,0,-19,2.910000,0.100000,282.799988,0,0,5,0,1,0
2016-06-14_13-26-23,1465903583.63230,0,0,0,0,0,0,-1,1,-15,2.550000,0.610000,282.739990,0,0,5,0,1,0
2016-06-14_13-26-23,1465903583.66960,0,0,0,0,0,0,-2,0,-15,2.360000,1.400000,282.940002,0,0,5,0,1,0
2016-06-14_13-26-23,1465903583.74455,0,0,0,0,0,0,-2,0,-15,2.480000,2.000000,283.200012,0,0,5,0,1,0
2016-06-14_13-26-23,1465903583.78203,0,0,0,0,0,0,-2,1,-15,2.360000,2.940000,283.549988,1,0,5,0,1,0
2016-06-14_13-26-23,1465903583.81964,0,0,0,0,0,0,-1,1,-13,1.480000,4.240000,284.160004,0,0,5,0,1,0
2016-06-14_13-26-23,1465903583.89444,0,0,0,0,0,0,0,1,-12,0.160000,5.380000,284.890015,0,0,5,0,1,0
2016-06-14_13-26-23,1465903583.93207,0,0,0,0,0,0,0,1,-11,-0.780000,6.000000,285.399994,0,0,5,0,1,0
2016-06-14_13-26-24,1465903584.00704,0,0,0,0,0,0,0,1,-12,-1.490000,6.390000,285.809998,0,0,5,0,1,0
2016-06-14_13-26-24,1465903584.04456,0,0,0,0,0,0,0,1,-13,-2.040000,7.010000,286.010010,0,0,5,0,1,0
2016-06-14_13-26-24,1465903584.08206,0,0,0,0,0,0,0,1,-19,-2.370000,7.310000,285.920013,0,0,5,0,1,0
2016-06-14_13-26-24,1465903584.11974,0,0,0,0,0,0,0,1,-19,-2.450000,7.020000,285.540009,0,0,5,0,1,0
2016-06-14_13-26-24,1465903584.19448,0,0,0,0,0,0,0,1,-25,-2.740000,6.940000,285.160004,0,0,5,0,1,0
2016-06-14_13-26-24,1465903584.23205,0,0,0,0,0,0,1,3,-17,-2.780000,7.470000,284.209991,0,0,5,0,1,0
2016-06-14_13-26-24,1465903584.26972,0,0,0,0,0,0,2,2,-15,-3.260000,7.660000,282.589996,0,0,5,0,1,0
2016-06-14_13-26-24,1465903584.34456,0,0,0,0,0,0,3,3,-15,-3.360000,6.410000,279.869995,0,0,5,0,1,0
2016-06-14_13-26-24,1465903584.45638,0,0,0,0,0,0,3,3,-16,-3.880000,5.070000,276.859985,0,0,5,0,1,0
2016-06-14_13-26-24,1465903584.45860,0,0,0,0,0,0,2,2,-14,-4.610000,4.830000,274.029999,1,0,5,0,1,0
2016-06-14_13-26-24,1465903584.53144,0,0,0,0,0,0,1,1,-12,-4.640000,5.000000,271.190002,0,0,5,0,1,0
2016-06-14_13-26-24,1465903584.53357,0,0,0,0,0,0,0,2,-12,-3.950000,5.130000,268.459991,0,0,5,0,1,0
2016-06-14_13-26-24,1465903584.56978,0,0,0,0,0,0,0,2,-12,-3.330000,5.490000,266.549988,0,0,5,0,1,0
2016-06-14_13-26-24,1465903584.64461,0,0,0,0,0,0,0,3,-15,-3.120000,6.400000,265.859985,0,0,5,0,1,0
2016-06-14_13-26-24,1465903584.68209,0,0,0,0,0,0,0,2,-19,-2.700000,8.170000,266.720001,0,0,5,0,1,0
2016-06-14_13-26-24,1465903584.71968,0,0,0,0,0,0,1,3,-18,-2.050000,10.680000,269.380005,0,0,5,0,1,0
2016-06-14_13-26-24,1465903584.79446,0,0,0,0,0,0,0,4,-18,-1.850000,14.100000,273.690002,0,0,5,0,1,0
2016-06-14_13-26-24,1465903584.83212,0,0,0,0,0,0,-2,5,-14,-1.370000,17.740000,278.420013,0,0,5,0,1,0
2016-06-14_13-26-24,1465903584.86968,0,0,0,0,0,0,-4,4,-16,0.070000,21.080000,282.149994,1,0,5,0,1,0
2016-06-14_13-26-24,1465903584.94459,0,0,0,0,0,0,-5,5,-13,2.430000,25.030001,283.820007,0,0,5,0,1,0
2016-06-14_13-26-24,1465903584.98211,0,0,0,0,0,0,-5,5,-11,4.300000,29.000000,284.429993,0,0,5,0,1,0
2016-06-14_13-26-25,1465903585.01971,0,0,0,0,0,0,-5,6,-9,5.050000,32.689999,285.140015,0,0,5,0,1,0
2016-06-14_13-26-25,1465903585.09447,0,0,0,0,0,0,-5,6,-8,5.310000,35.740002,286.119995,0,0,5,0,1,0
2016-06-14_13-26-25,1465903585.13203,0,0,0,0,0,0,-6,6,-8,5.390000,37.450001,287.140015,0,0,5,0,1,0
2016-06-14_13-26-25,1465903585.16970,0,0,0,0,0,0,-6,6,-8,5.280000,38.200001,287.799988,0,0,5,0,1,0
2016-06-14_13-26-25,1465903585.24459,0,0,0,0,0,0,-6,6,-9,4.720000,38.150002,288.339996,0,0,5,0,1,0
2016-06-14_13-26-25,1465903585.28211,0,0,0,0,0,0,-7,8,-15,4.140000,37.770000,288.869995,0,0,5,0,1,0
2016-06-14_13-26-25,1465903585.35720,0,0,0,0,0,0,-7,9,-14,3.730000,37.680000,289.070007,0,0,5,0,1,0
2016-06-14_13-26-25,1465903585.39448,0,0,0,0,0,0,-7,10,-18,2.850000,37.040001,289.500000,0,0,5,0,1,0
2016-06-14_13-26-25,1465903585.46897,0,0,0,0,0,0,-4,12,-12,2.750000,35.930000,288.899994,0,0,5,0,1,0
2016-06-14_13-26-25,1465903585.47115,0,0,0,0,0,0,-2,9,-14,2.550000,34.250000,289.399994,0,0,5,0,1,0
2016-06-14_13-26-25,1465903585.54475,0,0,0,0,0,0,-3,7,-14,2.910000,32.590000,290.390015,0,0,5,0,1,0
2016-06-14_13-26-25,1465903585.61951,0,0,0,0,0,0,-3,7,-13,3.470000,32.360001,291.040009,0,0,5,0,1,0
2016-06-14_13-26-25,1465903585.62162,0,0,0,0,0,0,-4,6,-10,3.520000,32.840000,291.940002,1,0,5,0,1,0
2016-06-14_13-26-25,1465903585.73147,0,0,0,0,0,0,-3,4,-10,3.510000,32.520000,292.959991,0,0,5,0,1,0
2016-06-14_13-26-25,1465903585.73362,0,0,0,0,0,0,-3,4,-10,4.220000,31.670000,293.100006,0,0,5,0,1,0
2016-06-14_13-26-25,1465903585.76977,0,0,0,0,0,0,-4,4,-10,4.860000,31.440001,293.369995,0,0,5,0,1,0
2016-06-14_13-26-25,1465903585.88146,0,0,0,0,0,0,-3,6,-12,4.910000,31.420000,294.160004,0,0,5,0,1,0
2016-06-14_13-26-25,1465903585.88359,0,0,0,0,0,0,-4,7,-19,4.170000,31.639999,295.670013,0,0,5,0,1,0
2016-06-14_13-26-25,1465903585.91972,0,0,0,0,0,0,-5,7,-16,3.900000,32.410000,297.040009,0,0,5,0,1,0
2016-06-14_13-26-25,1465903585.99459,0,0,0,0,0,0,-8,8,-16,3.890000,33.139999,297.959991,0,0,5,0,1,0
2016-06-14_13-26-26,1465903586.03216,0,0,0,0,0,0,-8,8,-13,3.410000,32.919998,299.140015,0,0,5,0,1,0
2016-06-14_13-26-26,1465903586.06978,0,0,0,0,0,0,-7,7,-13,2.840000,31.920000,300.540009,1,0,5,0,1,0
2016-06-14_13-26-26,1465903586.18144,0,0,0,0,0,0,-7,6,-13,3.110000,31.570000,301.640015,0,0,5,0,1,0
2016-06-14_13-26-26,1465903586.18349,0,0,0,0,0,0,-6,5,-11,3.880000,32.250000,302.589996,0,0,5,0,1,0
2016-06-14_13-26-26,1465903586.21973,0,0,0,0,0,0,-5,5,-9,4.630000,33.470001,303.579987,0,0,5,0,1,0
2016-06-14_13-26-26,1465903586.29459,0,0,0,0,0,0,-5,3,-9,5.060000,34.709999,304.660004,0,0,5,0,1,0
2016-06-14_13-26-26,1465903586.33210,0,0,0,0,0,0,-5,3,-8,5.340000,36.080002,304.619995,0,0,5,0,1,0
2016-06-14_13-26-26,1465903586.40715,0,0,0,0,0,0,-7,4,-8,4.810000,36.889999,303.109985,0,0,5,0,1,0
2016-06-14_13-26-26,1465903586.48143,0,0,0,0,0,0,-7,6,-11,3.080000,37.200001,300.769989,0,0,5,0,1,0
2016-06-14_13-26-26,1465903586.48349,0,0,0,0,0,0,-8,8,-17,1.310000,36.849998,297.410004,0,0,5,0,1,0
2016-06-14_13-26-26,1465903586.51973,0,0,0,0,0,0,-7,13,-16,0.010000,36.869999,294.320007,0,0,5,0,1,0
2016-06-14_13-26-26,1465903586.59463,0,0,0,0,0,0,-7,12,-16,-0.690000,37.660000,293.000000,0,0,5,0,1,0
2016-06-14_13-26-26,1465903586.66899,0,0,0,0,0,0,-4,12,-10,-0.480000,36.939999,292.980011,0,0,5,0,1,0
2016-06-14_13-26-26,1465903586.67129,0,0,0,0,0,0,-2,9,-14,-0.610000,34.330002,295.320007,0,0,5,0,1,0
2016-06-14_13-26-26,1465903586.74466,0,0,0,0,0,0,-2,9,-14,-0.750000,32.060001,298.109985,0,0,5,0,1,0
2016-06-14_13-26-26,1465903586.81894,0,0,0,0,0,0,-1,8,-10,-1.250000,30.040001,301.329987,1,0,5,0,1,0
2016-06-14_13-26-26,1465903586.82117,0,0,0,0,0,0,0,7,-8,-2.220000,27.080000,305.709991,0,0,5,0,1,0
2016-06-14_13-26-26,1465903586.89449,0,0,0,0,0,0,0,5,-9,-2.650000,21.299999,312.230011,0,0,5,0,1,0
2016-06-14_13-26-26,1465903586.93214,0,0,0,0,0,0,1,1,-11,-2.810000,14.660000,320.309998,0,0,5,0,1,0
2016-06-14_13-26-26,1465903586.96979,0,0,0,0,0,0,2,0,-12,-3.490000,9.250000,328.230011,0,0,5,0,1,0
2016-06-14_13-26-27,1465903587.08145,0,0,0,0,0,0,3,-1,-19,-4.630000,5.430000,334.220001,0,0,5,0,1,0
2016-06-14_13-26-27,1465903587.08350,0,0,0,0,0,0,2,0,-19,-5.410000,3.240000,337.250000,0,0,5,0,1,0
2016-06-14_13-26-27,1465903587.11972,0,0,0,0,0,0,3,1,-22,-6.210000,1.730000,338.690002,0,0,5,0,1,0
2016-06-14_13-26-27,1465903587.19463,0,0,0,0,0,0,0,1,-19,-6.910000,0.610000,340.609985,0,0,5,0,1,0
2016-06-14_13-26-27,1465903587.23215,0,0,0,0,0,0,-2,2,-18,-6.370000,0.440000,344.500000,0,0,5,0,1,0
2016-06-14_13-26-27,1465903587.34396,0,0,0,0,0,0,-2,-1,-16,-5.310000,0.600000,351.440002,0,0,5,0,1,0
2016-06-14_13-26-27,1465903587.34633,0,0,0,0,0,0,-1,-2,-15,-4.560000,0.970000,358.570007,0,0,5,0,1,0
2016-06-14_13-26-27,1465903587.41897,0,0,0,0,0,0,0,-1,-12,-3.940000,1.890000,4.270000,1,0,5,0,1,0
2016-06-14_13-26-27,1465903587.42115,0,0,0,0,0,0,0,0,-11,-3.360000,3.380000,8.990000,0,0,5,0,1,0
2016-06-14_13-26-27,1465903587.49453,0,0,0,0,0,0,0,0,-11,-2.740000,4.660000,12.730000,0,0,5,0,1,0
2016-06-14_13-26-27,1465903587.53213,0,0,0,0,0,0,0,0,-12,-2.020000,5.410000,15.300000,0,0,5,0,1,0
2016-06-14_13-26-27,1465903587.56978,0,0,0,0,0,0,-1,0,-13,-1.170000,5.900000,17.520000,0,0,5,0,1,0
2016-06-14_13-26-27,1465903587.64467,0,0,0,0,0,0,0,1,-17,-0.080000,6.240000,19.760000,0,0,5,0,1,0
2016-06-14_13-26-27,1465903587.68217,0,0,0,0,0,0,0,-1,-19,0.210000,6.140000,22.790001,0,0,5,0,1,0
2016-06-14_13-26-27,1465903587.75724,0,0,0,0,0,0,0,-1,-24,0.000000,5.370000,25.650000,0,0,5,0,1,0
2016-06-14_13-26-27,1465903587.79463,0,0,0,0,0,0,-1,1,-19,-0.480000,5.010000,27.660000,0,0,5,0,1,0
2016-06-14_13-26-27,1465903587.83209,0,0,0,0,0,0,0,4,-16,-0.480000,4.790000,28.790001,0,0,5,0,1,0
2016-06-14_13-26-27,1465903587.86968,0,0,0,0,0,0,-1,1,-16,-1.080000,3.650000,29.860001,0,0,5,0,1,0
2016-06-14_13-26-27,1465903587.94466,0,0,0,0,0,0,0,0,-15,-1.390000,2.910000,30.059999,0,0,5,0,1,0
2016-06-14_13-26-27,1465903587.98215,0,0,0,0,0,0,0,0,-12,-1.370000,2.580000,28.940001,1,0,5,0,1,0
2016-06-14_13-26-28,1465903588.05734,0,0,0,0,0,0,0,0,-11,-0.870000,1.860000,26.730000,0,0,5,0,1,0
2016-06-14_13-26-28,1465903588.09472,0,0,0,0,0,0,0,0,-11,-0.690000,0.960000,24.120001,0,0,5,0,1,0
2016-06-14_13-26-28,1465903588.13217,0,0,0,0,0,0,0,0,-12,-0.710000,0.120000,21.360001,0,0,5,0,1,0
2016-06-14_13-26-28,1465903588.16981,0,0,0,0,0,0,0,0,-16,-0.260000,-0.590000,19.219999,0,0,5,0,1,0
2016-06-14_13-26-28,1465903588.28148,0,0,0,0,0,0,0,0,-20,0.570000,-1.170000,17.910000,0,0,5,0,1,0
2016-06-14_13-26-28,1465903588.28380,0,0,0,0,0,0,0,0,-20,1.130000,-1.250000,16.990000,0,0,5,0,1,0
2016-06-14_13-26-28,1465903588.35736,0,0,0,0,0,0,-1,-2,-19,1.450000,-0.840000,15.820000,0,0,5,0,1,0
2016-06-14_13-26-28,1465903588.39460,0,0,0,0,0,0,-1,-1,-16,0.990000,-1.110000,14.270000,0,0,5,0,1,0
2016-06-14_13-26-28,1465903588.43210,0,0,0,0,0,0,-2,-4,-19,-0.440000,-1.650000,12.820000,0,0,5,0,1,0
2016-06-14_13-26-28,1465903588.46974,0,0,0,0,0,0,-2,-3,-17,-1.110000,-1.210000,11.090000,0,0,5,0,1,0
2016-06-14_13-26-28,1465903588.58148,0,0,0,0,0,0,-1,-2,-13,-1.360000,0.330000,9.100000,1,0,5,0,1,0
2016-06-14_13-26-28,1465903588.58355,0,0,0,0,0,0,-1,0,-11,-2.030000,2.340000,7.250000,0,0,5,0,1,0
2016-06-14_13-26-28,1465903588.69397,0,0,0,0,0,0,0,0,-11,-3.260000,4.580000,5.860000,0,0,5,0,1,0
2016-06-14_13-26-28,1465903588.69629,0,0,0,0,0,0,0,0,-11,-4.090000,6.820000,4.590000,0,0,5,0,1,0
2016-06-14_13-26-28,1465903588.73211,0,0,0,0,0,0,0,2,-11,-4.080000,8.850000,3.200000,0,0,5,0,1,0
2016-06-14_13-26-28,1465903588.76974,0,0,0,0,0,0,-1,1,-17,-3.960000,10.620000,2.540000,0,0,5,0,1,0
2016-06-14_13-26-28,1465903588.84483,0,0,0,0,0,0,-2,0,-20,-4.080000,11.560000,2.410000,0,0,5,0,1,0
2016-06-14_13-26-28,1465903588.88216,0,0,0,0,0,0,-1,1,-21,-4.330000,12.370000,2.170000,0,0,5,0,1,0
2016-06-14_13-26-28,1465903588.91978,0,0,0,0,0,0,-1,5,-19,-4.600000,13.350000,1.710000,0,0,5,0,1,0
2016-06-14_13-26-28,1465903588.99464,0,0,0,0,0,0,-1,8,-13,-5.010000,14.770000,1.260000,0,0,5,0,1,0
2016-06-14_13-26-29,1465903589.06903,0,0,0,0,0,0,0,6,-15,-5.620000,14.980000,1.200000,0,0,5,0,1,0
2016-06-14_13-26-29,1465903589.07124,0,0,0,0,0,0,0,6,-16,-6.290000,14.640000,1.170000,0,0,5,0,1,0
2016-06-14_13-26-29,1465903589.14483,0,0,0,0,0,0,0,5,-14,-6.820000,15.330000,0.970000,1,0,5,0,1,0
2016-06-14_13-26-29,1465903589.18218,0,0,0,0,0,0,0,2,-10,-6.680000,16.610001,0.310000,0,0,5,0,1,0
2016-06-14_13-26-29,1465903589.21979,0,0,0,0,0,0,0,1,-10,-6.590000,17.180000,359.350006,0,0,5,0,1,0
2016-06-14_13-26-29,1465903589.33144,0,0,0,0,0,0,0,2,-11,-6.890000,17.100000,358.059998,0,0,5,0,1,0
2016-06-14_13-26-29,1465903589.33351,0,0,0,0,0,0,0,4,-13,-7.240000,17.459999,356.609985,0,0,5,0,1,0
2016-06-14_13-26-29,1465903589.36980,0,0,0,0,0,0,0,5,-18,-6.930000,18.299999,355.450012,0,0,5,0,1,0
2016-06-14_13-26-29,1465903589.44469,0,0,0,0,0,0,0,6,-17,-5.930000,19.010000,354.869995,0,0,5,0,1,0
2016-06-14_13-26-29,1465903589.48220,0,0,0,0,0,0,-1,7,-24,-4.850000,19.160000,354.809998,0,0,5,0,1,0
2016-06-14_13-26-29,1465903589.55727,0,0,0,0,0,0,-3,5,-18,-4.540000,19.170000,356.079987,0,0,5,0,1,0
2016-06-14_13-26-29,1465903589.63151,0,0,0,0,0,0,-6,4,-17,-4.110000,19.000000,357.779999,0,0,5,0,1,0
2016-06-14_13-26-29,1465903589.63360,0,0,0,0,0,0,-6,4,-15,-3.520000,19.129999,359.160004,0,0,5,0,1,0
2016-06-14_13-26-29,1465903589.66982,0,0,0,0,0,0,-6,3,-14,-3.110000,19.230000,0.010000,0,0,5,0,1,0
2016-06-14_13-26-29,1465903589.74483,0,0,0,0,0,0,-4,4,-10,-3.310000,19.559999,0.860000,1,0,5,0,1,0
2016-06-14_13-26-29,1465903589.78227,0,0,0,0,0,0,-2,3,-9,-4.450000,20.010000,2.360000,0,0,5,0,1,0
2016-06-14_13-26-29,1465903589.81981,0,0,0,0,0,0,-1,3,-10,-5.660000,20.219999,4.090000,0,0,5,0,1,0
2016-06-14_13-26-29,1465903589.89484,0,0,0,0,0,0,-1,3,-11,-6.380000,20.250000,5.760000,0,0,5,0,1,0
2016-06-14_13-26-29,1465903589.93222,0,0,0,0,0,0,-1,3,-12,-6.370000,19.790001,7.270000,0,0,5,0,1,0
2016-06-14_13-26-29,1465903589.96985,0,0,0,0,0,0,-2,3,-18,-6.570000,18.620001,8.850000,0,0,5,0,1,0
2016-06-14_13-26-30,1465903590.04483,0,0,0,0,0,0,-2,3,-21,-7.110000,17.320000,10.570000,0,0,5,0,1,0
2016-06-14_13-26-30,1465903590.11909,0,0,0,0,0,0,-1,4,-24,-7.040000,16.760000,11.690000,0,0,5,0,1,0
2016-06-14_13-26-30,1465903590.12129,0,0,0,0,0,0,-1,5,-16,-6.820000,16.750000,11.880000,0,0,5,0,1,0
2016-06-14_13-26-30,1465903590.19451,0,0,0,0,0,0,0,9,-15,-7.150000,16.790001,11.950000,0,0,5,0,1,0
2016-06-14_13-26-30,1465903590.23223,0,0,0,0,0,0,0,8,-15,-8.230000,16.959999,12.910000,0,0,5,0,1,0
2016-06-14_13-26-30,1465903590.26978,0,0,0,0,0,0,0,8,-15,-8.740000,17.600000,13.900000,0,0,5,0,1,0
2016-06-14_13-26-30,1465903590.38154,0,0,0,0,0,0,0,5,-12,-8.300000,18.350000,14.480000,1,0,5,0,1,0
2016-06-14_13-26-30,1465903590.41909,0,0,0,0,0,0,0,3,-10,-7.250000,18.459999,14.460000,0,0,5,0,1,0
2016-06-14_13-26-30,1465903590.42128,0,0,0,0,0,0,-1,0,-11,-6.510000,18.250000,13.840000,0,0,5,0,1,0
2016-06-14_13-26-30,1465903590.49461,0,0,0,0,0,0,0,0,-11,-6.640000,17.510000,11.160000,0,0,5,0,1,0
2016-06-14_13-26-30,1465903590.53222,0,0,0,0,0,0,0,2,-14,-7.590000,15.080000,5.460000,0,0,5,0,1,0
2016-06-14_13-26-30,1465903590.56985,0,0,0,0,0,0,1,4,-19,-7.930000,10.950000,357.649994,0,0,5,0,1,0
2016-06-14_13-26-30,1465903590.64473,0,0,0,0,0,0,1,5,-18,-7.710000,7.320000,350.769989,0,0,5,0,1,0
2016-06-14_13-26-30,1465903590.68245,0,0,0,0,0,0,0,5,-21,-7.760000,5.530000,346.880005,0,0,5,0,1,0
2016-06-14_13-26-30,1465903590.71983,0,0,0,0,0,0,0,1,-18,-8.560000,4.320000,345.739990,0,0,5,0,1,0
2016-06-14_13-26-30,1465903590.79467,0,0,0,0,0,0,-2,2,-19,-8.500000,2.950000,344.540009,0,0,5,0,1,0
2016-06-14_13-26-30,1465903590.94577,0,0,0,0,0,0,-3,3,-17,-7.820000,2.450000,343.329987,0,0,5,0,1,0
2016-06-14_13-26-30,1465903590.94860,0,0,0,0,0,0,-2,3,-14,-7.380000,2.190000,342.700012,0,0,5,0,1,0
2016-06-14_13-26-30,1465903590.94912,0,0,0,0,0,0,0,2,-12,-7.790000,1.820000,342.790009,1,0,5,0,1,0
2016-06-14_13-26-31,1465903591.01921,0,0,0,0,0,0,0,1,-11,-8.290000,1.320000,342.890015,0,0,5,0,1,0
2016-06-14_13-26-31,1465903591.02218,0,0,0,0,0,0,0,0,-11,-8.350000,0.860000,342.640015,0,0,5,0,1,0
2016-06-14_13-26-31,1465903591.09496,0,0,0,0,0,0,0,0,-12,-8.310000,0.880000,342.290009,0,0,5,0,1,0
2016-06-14_13-26-31,1465903591.13227,0,0,0,0,0,0,0,0,-15,-8.570000,2.380000,341.760010,0,0,5,0,1,0
2016-06-14_13-26-31,1465903591.20728,0,0,0,0,0,0,0,1,-20,-9.390000,6.600000,340.679993,0,0,5,0,1,0
2016-06-14_13-26-31,1465903591.24489,0,0,0,0,0,0,0,3,-17,-10.730000,11.600000,339.000000,0,0,5,0,1,0
2016-06-14_13-26-31,1465903591.35683,0,0,0,0,0,0,0,8,-19,-11.580000,12.520000,336.809998,0,0,5,0,1,0
2016-06-14_13-26-31,1465903591.35888,0,0,0,0,0,0,2,8,-17,-11.370000,10.290000,334.649994,0,0,5,0,1,0
2016-06-14_13-26-31,1465903591.43159,0,0,0,0,0,0,4,4,-17,-11.340000,7.140000,333.970001,0,0,5,0,1,0
2016-06-14_13-26-31,1465903591.43369,0,0,0,0,0,0,4,3,-15,-10.550000,4.330000,333.670013,1,0,5,0,1,0
2016-06-14_13-26-31,1465903591.54406,0,0,0,0,0,0,4,2,-16,-10.120000,2.960000,333.350006,0,0,5,0,1,0
2016-06-14_13-26-31,1465903591.73157,0,0,0,0,0,0,3,1,-13,-9.890000,2.250000,332.679993,0,0,5,0,1,0
2016-06-14_13-26-31,1465903591.73366,0,0,0,0,0,0,1,1,-12,-9.210000,1.620000,331.589996,0,0,5,0,1,0
2016-06-14_13-26-31,1465903591.73410,0,0,0,0,0,0,1,0,-12,-8.260000,1.070000,330.489990,0,0,5,0,1,0
2016-06-14_13-26-31,1465903591.76916,0,0,0,0,0,0,1,0,-12,-7.500000,0.580000,329.390015,0,0,5,0,1,0
2016-06-14_13-26-31,1465903591.80664,0,0,0,0,0,0,1,1,-14,-7.230000,0.280000,328.369995,0,0,5,0,1,0
2016-06-14_13-26-31,1465903591.80869,0,0,0,0,0,0,1,0,-20,-7.270000,0.070000,327.500000,0,0,5,0,1,0
2016-06-14_13-26-31,1465903591.88156,0,0,0,0,0,0,1,0,-18,-6.750000,-0.370000,326.709991,0,0,5,0,1,0
2016-06-14_13-26-31,1465903591.88365,0,0,0,0,0,0,1,0,-20,-6.410000,-1.070000,326.559998,0,0,5,0,1,0
2016-06-14_13-26-31,1465903591.99418,0,0,0,0,0,0,0,3,-16,-6.000000,-1.600000,326.609985,0,0,5,0,1,0
2016-06-14_13-26-31,1465903591.99648,0,0,0,0,0,0,0,3,-17,-5.510000,-1.340000,326.600006,0,0,5,0,1,0
2016-06-14_13-26-32,1465903592.03227,0,0,0,0,0,0,0,3,-16,-5.230000,-0.890000,326.690002,0,0,5,0,1,0
2016-06-14_13-26-32,1465903592.06991,0,0,0,0,0,0,0,3,-14,-5.180000,-0.170000,326.700012,0,0,5,0,1,0
2016-06-14_13-26-32,1465903592.14493,0,0,0,0,0,0,0,2,-11,-5.470000,0.570000,326.790009,1,0,5,0,1,0
2016-06-14_13-26-32,1465903592.21908,0,0,0,0,0,0,0,1,-11,-5.980000,0.950000,327.059998,0,0,5,0,1,0
2016-06-14_13-26-32,1465903592.22123,0,0,0,0,0,0,0,0,-11,-6.230000,0.910000,327.350006,0,0,5,0,1,0
2016-06-14_13-26-32,1465903592.36922,0,0,0,0,0,0,0,1,-11,-6.410000,0.660000,327.579987,0,0,5,0,1,0
2016-06-14_13-26-32,1465903592.37130,0,0,0,0,0,0,0,0,-15,-7.110000,0.570000,327.750000,0,0,5,0,1,0
2016-06-14_13-26-32,1465903592.37186,0,0,0,0,0,0,0,0,-21,-7.680000,0.410000,327.230011,0,0,5,0,1,0
2016-06-14_13-26-32,1465903592.44478,0,0,0,0,0,0,0,1,-20,-7.720000,0.870000,326.339996,0,0,5,0,1,0
2016-06-14_13-26-32,1465903592.63173,0,0,0,0,0,0,0,0,-20,-7.820000,1.180000,325.070007,0,0,5,0,1,0
2016-06-14_13-26-32,1465903592.63404,0,0,0,0,0,0,3,2,-13,-7.420000,0.990000,323.209991,0,0,5,0,1,0
2016-06-14_13-26-32,1465903592.63456,0,0,0,0,0,0,4,0,-18,-7.430000,0.190000,321.660004,0,0,5,0,1,0
2016-06-14_13-26-32,1465903592.63728,0,0,0,0,0,0,4,1,-17,-7.080000,-0.250000,319.760010,0,0,5,0,1,0
2016-06-14_13-26-32,1465903592.66996,0,0,0,0,0,0,3,2,-15,-7.870000,0.040000,318.470001,1,0,5,0,1,0
2016-06-14_13-26-32,1465903592.74494,0,0,0,0,0,0,2,3,-12,-8.710000,0.900000,318.510010,0,0,5,0,1,0
2016-06-14_13-26-32,1465903592.78259,0,0,0,0,0,0,1,4,-11,-8.820000,2.180000,320.609985,0,0,5,0,1,0
2016-06-14_13-26-32,1465903592.81994,0,0,0,0,0,0,1,2,-11,-8.290000,3.770000,325.470001,0,0,5,0,1,0
2016-06-14_13-26-32,1465903592.93214,0,0,0,0,0,0,1,1,-12,-7.820000,5.560000,331.920013,0,0,5,0,1,0
2016-06-14_13-26-32,1465903592.96915,0,0,0,0,0,0,0,0,-17,-7.470000,6.800000,338.230011,0,0,5,0,1,0
2016-06-14_13-26-32,1465903592.97131,0,0,0,0,0,0,1,0,-19,-7.290000,7.860000,343.119995,0,0,5,0,1,0
2016-06-14_13-26-33,1465903593.11923,0,0,0,0,0,0,0,1,-23,-7.150000,8.270000,346.619995,0,0,5,0,1,0
2016-06-14_13-26-33,1465903593.12135,0,0,0,0,0,0,-1,3,-17,-7.170000,8.760000,349.519989,0,0,5,0,1,0
2016-06-14_13-26-33,1465903593.12178,0,0,0,0,0,0,-3,4,-16,-7.200000,8.980000,351.899994,0,0,5,0,1,0
2016-06-14_13-26-33,1465903593.19479,0,0,0,0,0,0,-4,4,-15,-6.660000,9.030000,353.529999,0,0,5,0,1,0
2016-06-14_13-26-33,1465903593.30666,0,0,0,0,0,0,-3,5,-15,-6.380000,9.280000,354.920013,0,0,5,0,1,0
2016-06-14_13-26-33,1465903593.30873,0,0,0,0,0,0,-2,4,-13,-6.730000,9.470000,356.600006,1,0,5,0,1,0
2016-06-14_13-26-33,1465903593.53165,0,0,0,0,0,0,-1,3,-11,-7.440000,9.210000,358.399994,0,0,5,0,1,0
2016-06-14_13-26-33,1465903593.53363,0,0,0,0,0,0,0,2,-11,-7.890000,8.450000,359.769989,0,0,5,0,1,0
2016-06-14_13-26-33,1465903593.68173,0,0,0,0,0,0,0,1,-11,-7.880000,7.420000,0.510000,0,0,5,0,1,0
2016-06-14_13-26-33,1465903593.68381,0,0,0,0,0,0,0,1,-12,-8.360000,7.190000,1.210000,0,0,5,0,1,0
2016-06-14_13-26-33,1465903593.68425,0,0,0,0,0,0,-1,1,-19,-8.930000,7.510000,1.640000,0,0,5,0,1,0
2016-06-14_13-26-33,1465903593.68498,0,0,0,0,0,0,0,1,-19,-8.990000,7.550000,1.350000,0,0,5,0,1,0
2016-06-14_13-26-33,1465903593.68700,0,0,0,0,0,0,0,2,-22,-9.050000,7.880000,0.870000,0,0,5,0,1,0
2016-06-14_13-26-33,1465903593.68942,0,0,0,0,0,0,1,4,-17,-9.220000,8.810000,0.100000,0,0,5,0,1,0
2016-06-14_13-26-33,1465903593.72000,0,0,0,0,0,0,2,3,-18,-9.600000,9.190000,359.200012,0,0,5,0,1,0
2016-06-14_13-26-33,1465903593.79495,0,0,0,0,0,0,3,5,-17,-9.460000,8.720000,358.309998,0,0,5,0,1,0
2016-06-14_13-26-34,1465903594.01931,0,0,0,0,0,0,3,4,-17,-9.970000,8.800000,358.250000,0,0,5,0,1,0
2016-06-14_13-26-34,1465903594.02179,0,0,0,0,0,0,2,3,-13,-10.450000,9.360000,358.640015,1,0,5,0,1,0
2016-06-14_13-26-34,1465903594.02232,0,0,0,0,0,0,0,2,-11,-9.940000,9.740000,358.489990,0,0,5,0,1,0
2016-06-14_13-26-34,1465903594.02268,0,0,0,0,0,0,0,1,-11,-8.930000,9.690000,357.910004,0,0,5,0,1,0
2016-06-14_13-26-34,1465903594.02440,0,0,0,0,0,0,0,2,-10,-8.130000,9.800000,357.269989,0,0,5,0,1,0
2016-06-14_13-26-34,1465903594.13159,0,0,0,0,0,0,0,3,-14,-7.920000,10.460000,357.070007,0,0,5,0,1,0
2016-06-14_13-26-34,1465903594.13368,0,0,0,0,0,0,0,3,-19,-7.850000,11.190000,357.279999,0,0,5,0,1,0
2016-06-14_13-26-34,1465903594.17004,0,0,0,0,0,0,0,4,-18,-7.500000,11.510000,357.690002,0,0,5,0,1,0
2016-06-14_13-26-34,1465903594.24494,0,0,0,0,0,0,-1,4,-17,-7.510000,11.440000,358.380005,0,0,5,0,1,0
2016-06-14_13-26-34,1465903594.28230,0,0,0,0,0,0,-3,4,-16,-7.600000,10.680000,358.790009,0,0,5,0,1,0
2016-06-14_13-26-34,1465903594.39420,0,0,0,0,0,0,-3,5,-17,-7.270000,9.220000,358.149994,0,0,5,0,1,0
2016-06-14_13-26-34,1465903594.39626,0,0,0,0,0,0,-3,6,-16,-6.610000,8.410000,357.380005,0,0,5,0,1,0
2016-06-14_13-26-34,1465903594.43234,0,0,0,0,0,0,-2,5,-14,-6.560000,8.280000,357.470001,1,0,5,0,1,0
2016-06-14_13-26-34,1465903594.47000,0,0,0,0,0,0,-1,4,-12,-7.210000,8.100000,357.799988,0,0,5,0,1,0
2016-06-14_13-26-34,1465903594.54479,0,0,0,0,0,0,0,3,-11,-8.090000,7.420000,358.029999,0,0,5,0,1,0
2016-06-14_13-26-34,1465903594.61920,0,0,0,0,0,0,0,2,-10,-8.820000,6.850000,358.739990,0,0,5,0,1,0
2016-06-14_13-26-34,1465903594.62126,0,0,0,0,0,0,0,2,-10,-9.460000,6.430000,0.310000,0,0,5,0,1,0
2016-06-14_13-26-34,1465903594.69487,0,0,0,0,0,0,0,3,-17,-10.060000,6.670000,2.690000,0,0,5,0,1,0
2016-06-14_13-26-34,1465903594.73236,0,0,0,0,0,0,-1,5,-20,-10.580000,8.490000,6.300000,0,0,5,0,1,0
2016-06-14_13-26-34,1465903594.76991,0,0,0,0,0,0,0,6,-20,-10.640000,12.170000,12.870000,0,0,5,0,1,0
2016-06-14_13-26-34,1465903594.88170,0,0,0,0,0,0,0,5,-18,-10.090000,16.910000,22.830000,0,0,5,0,1,0
2016-06-14_13-26-34,1465903594.88377,0,0,0,0,0,0,1,6,-13,-9.070000,21.459999,33.779999,0,0,5,0,1,0
2016-06-14_13-26-34,1465903594.92006,0,0,0,0,0,0,1,5,-16,-7.820000,24.450001,43.610001,0,0,5,0,1,0
2016-06-14_13-26-34,1465903594.99488,0,0,0,0,0,0,1,6,-15,-6.720000,25.750000,51.419998,0,0,5,0,1,0
2016-06-14_13-26-35,1465903595.03233,0,0,0,0,0,0,0,6,-14,-6.400000,26.850000,57.830002,1,0,5,0,1,0
2016-06-14_13-26-35,1465903595.10733,0,0,0,0,0,0,-1,5,-11,-6.260000,28.650000,62.830002,0,0,5,0,1,0
2016-06-14_13-26-35,1465903595.21925,0,0,0,0,0,0,-1,4,-10,-5.740000,30.030001,66.550003,0,0,5,0,1,0
2016-06-14_13-26-35,1465903595.22150,0,0,0,0,0,0,-2,4,-11,-4.950000,30.950001,69.389999,0,0,5,0,1,0
2016-06-14_13-26-35,1465903595.22201,0,0,0,0,0,0,-3,5,-11,-4.060000,31.969999,71.300003,0,0,5,0,1,0
2016-06-14_13-26-35,1465903595.29487,0,0,0,0,0,0,-3,6,-14,-3.250000,32.930000,72.360001,0,0,5,0,1,0
2016-06-14_13-26-35,1465903595.44421,0,0,0,0,0,0,-4,7,-17,-2.800000,33.529999,72.949997,0,0,5,0,1,0
2016-06-14_13-26-35,1465903595.44641,0,0,0,0,0,0,-4,9,-19,-2.590000,34.160000,73.010002,0,0,5,0,1,0
2016-06-14_13-26-35,1465903595.44686,0,0,0,0,0,0,-6,9,-17,-2.760000,34.970001,72.910004,0,0,5,0,1,0
2016-06-14_13-26-35,1465903595.51917,0,0,0,0,0,0,-9,6,-12,-3.090000,34.730000,72.860001,0,0,5,0,1,0
2016-06-14_13-26-35,1465903595.52123,0,0,0,0,0,0,-9,6,-13,-3.460000,33.610001,72.339996,0,0,5,0,1,0
2016-06-14_13-26-35,1465903595.63233,0,0,0,0,0,0,-7,6,-14,-4.240000,33.130001,71.730003,0,0,5,0,1,0
2016-06-14_13-26-35,1465903595.63440,0,0,0,0,0,0,-5,7,-11,-5.130000,32.970001,70.900002,1,0,5,0,1,0
2016-06-14_13-26-35,1465903595.66989,0,0,0,0,0,0,-4,7,-8,-6.100000,32.880001,70.620003,0,0,5,0,1,0
2016-06-14_13-26-35,1465903595.74490,0,0,0,0,0,0,-2,5,-8,-7.070000,32.759998,71.209999,0,0,5,0,1,0
2016-06-14_13-26-35,1465903595.81942,0,0,0,0,0,0,-1,5,-8,-7.950000,32.349998,72.339996,0,0,5,0,1,0
2016-06-14_13-26-35,1465903595.85725,0,0,0,0,0,0,-2,6,-11,-8.730000,31.650000,73.730003,0,0,5,0,1,0
2016-06-14_13-26-35,1465903595.93175,0,0,0,0,0,0,-3,5,-17,-9.400000,31.540001,74.970001,0,0,5,0,1,0
2016-06-14_13-26-35,1465903595.93389,0,0,0,0,0,0,-3,5,-18,-9.740000,31.040001,74.800003,0,0,5,0,1,0
2016-06-14_13-26-35,1465903595.96992,0,0,0,0,0,0,-2,3,-21,-10.490000,29.770000,72.910004,0,0,5,0,1,0
2016-06-14_13-26-36,1465903596.08200,0,0,0,0,0,0,2,3,-15,-12.430000,26.809999,66.309998,0,0,5,0,1,0
2016-06-14_13-26-36,1465903596.08514,0,0,0,0,0,0,8,3,-17,-15.760000,19.400000,52.860001,0,0,5,0,1,0
2016-06-14_13-26-36,1465903596.15749,0,0,0,0,0,0,11,4,-20,-16.250000,9.210000,34.020000,0,0,5,0,1,0
2016-06-14_13-26-36,1465903596.26933,0,0,0,0,0,0,10,8,-17,-12.740000,1.350000,15.290000,0,0,5,0,1,0
2016-06-14_13-26-36,1465903596.27159,0,0,0,0,0,0,4,7,-14,-10.060000,-1.790000,2.400000,1,0,5,0,1,0
2016-06-14_13-26-36,1465903596.27382,0,0,0,0,0,0,1,4,-12,-7.570000,-2.360000,355.649994,0,0,5,0,1,0
2016-06-14_13-26-36,1465903596.34496,0,0,0,0,0,0,0,2,-10,-5.510000,-1.200000,352.630005,0,0,5,0,1,0
2016-06-14_13-26-36,1465903596.38297,0,0,0,0,0,0,0,2,-9,-4.520000,1.040000,351.179993,0,0,5,0,1,0
2016-06-14_13-26-36,1465903596.42008,0,0,0,0,0,0,-1,3,-13,-4.570000,2.800000,350.980011,0,0,5,0,1,0
2016-06-14_13-26-36,1465903596.53170,0,0,0,0,0,0,-1,6,-18,-5.550000,5.610000,353.029999,0,0,5,0,1,0
2016-06-14_13-26-36,1465903596.53383,0,0,0,0,0,0,-1,8,-19,-7.450000,10.520000,359.559998,0,0,5,0,1,0
2016-06-14_13-26-36,1465903596.71909,0,0,0,0,0,0,0,7,-20,-9.180000,16.570000,10.670000,0,0,5,0,1,0
2016-06-14_13-26-36,1465903596.72141,0,0,0,0,0,0,-1,8,-15,-10.510000,22.940001,25.150000,0,0,5,0,1,0
2016-06-14_13-26-36,1465903596.72199,0,0,0,0,0,0,-3,6,-14,-9.790000,29.580000,39.169998,1,0,5,0,1,0
2016-06-14_13-26-36,1465903596.72373,0,0,0,0,0,0,-5,10,-12,-7.920000,33.240002,50.130001,0,0,5,0,1,0
2016-06-14_13-26-36,1465903596.79480,0,0,0,0,0,0,-6,9,-14,-6.940000,35.250000,59.470001,0,0,5,0,1,0
2016-06-14_13-26-36,1465903596.83249,0,0,0,0,0,0,-4,9,-9,-6.500000,36.790001,66.750000,0,0,5,0,1,0
2016-06-14_13-26-36,1465903596.86987,0,0,0,0,0,0,-3,7,-8,-7.330000,37.889999,73.489998,0,0,5,0,1,0
2016-06-14_13-26-36,1465903596.94491,0,0,0,0,0,0,-2,6,-8,-8.190000,38.009998,79.209999,0,0,5,0,1,0
2016-06-14_13-26-36,1465903596.98311,0,0,0,0,0,0,-1,6,-6,-8.910000,37.959999,83.970001,0,0,5,0,1,0
2016-06-14_13-26-37,1465903597.09422,0,0,0,0,0,0,-2,8,-11,-10.040000,37.919998,88.980003,0,0,5,0,1,0
2016-06-14_13-26-37,1465903597.09657,0,0,0,0,0,0,-2,10,-17,-11.180000,38.700001,94.220001,0,0,5,0,1,0
2016-06-14_13-26-37,1465903597.13229,0,0,0,0,0,0,-3,9,-19,-11.400000,38.830002,98.529999,0,0,5,0,1,0
2016-06-14_13-26-37,1465903597.16989,0,0,0,0,0,0,-2,9,-17,-11.140000,38.840000,101.559998,0,0,5,0,1,0
2016-06-14_13-26-37,1465903597.28172,0,0,0,0,0,0,0,11,-12,-10.810000,38.900002,103.529999,0,0,5,0,1,0
2016-06-14_13-26-37,1465903597.28387,0,0,0,0,0,0,0,9,-14,-10.730000,38.209999,105.389999,0,0,5,0,1,0
2016-06-14_13-26-37,1465903597.43186,0,0,0,0,0,0,0,10,-13,-10.570000,36.990002,106.760002,0,0,5,0,1,0
2016-06-14_13-26-37,1465903597.43406,0,0,0,0,0,0,0,10,-11,-10.840000,36.750000,108.500000,0,0,5,0,1,0
2016-06-14_13-26-37,1465903597.43458,0,0,0,0,0,0,0,9,-9,-11.230000,37.750000,110.629997,1,0,5,0,1,0
2016-06-14_13-26-37,1465903597.50745,0,0,0,0,0,0,0,6,-9,-11.170000,38.520000,112.639999,0,0,5,0,1,0
2016-06-14_13-26-37,1465903597.58173,0,0,0,0,0,0,-1,5,-9,-10.500000,38.590000,114.000000,0,0,5,0,1,0
2016-06-14_13-26-37,1465903597.58390,0,0,0,0,0,0,-2,6,-10,-9.460000,38.740002,114.430000,0,0,5,0,1,0
2016-06-14_13-26-37,1465903597.65718,0,0,0,0,0,0,-3,8,-14,-8.500000,39.000000,114.099998,0,0,5,0,1,0
2016-06-14_13-26-37,1465903597.69490,0,0,0,0,0,0,-4,9,-16,-7.740000,38.860001,113.320000,0,0,5,0,1,0
2016-06-14_13-26-37,1465903597.91941,0,0,0,0,0,0,-4,11,-18,-7.340000,38.759998,112.669998,0,0,5,0,1,0
2016-06-14_13-26-37,1465903597.92190,0,0,0,0,0,0,-5,10,-16,-7.520000,39.080002,113.059998,0,0,5,0,1,0
2016-06-14_13-26-37,1465903597.92246,0,0,0,0,0,0,-7,10,-14,-7.420000,38.419998,113.279999,0,0,5,0,1,0
2016-06-14_13-26-37,1465903597.92613,0,0,0,0,0,0,-7,9,-12,-7.200000,37.590000,113.080002,0,0,5,0,1,0
2016-06-14_13-26-37,1465903597.92708,0,0,0,0,0,0,-6,8,-12,-7.190000,37.029999,113.230003,0,0,5,0,1,0
2016-06-14_13-26-37,1465903597.99495,0,0,0,0,0,0,-4,8,-10,-7.330000,36.820000,113.870003,0,0,5,0,1,0
2016-06-14_13-26-38,1465903598.06937,0,0,0,0,0,0,-2,7,-8,-8.000000,37.060001,115.379997,1,0,5,0,1,0
2016-06-14_13-26-38,1465903598.07182,0,0,0,0,0,0,-1,6,-8,-9.040000,36.660000,117.250000,0,0,5,0,1,0
2016-06-14_13-26-38,1465903598.18182,0,0,0,0,0,0,0,6,-9,-10.090000,35.500000,119.260002,0,0,5,0,1,0
2016-06-14_13-26-38,1465903598.18396,0,0,0,0,0,0,0,6,-11,-10.830000,34.700001,121.430000,0,0,5,0,1,0
2016-06-14_13-26-38,1465903598.25735,0,0,0,0,0,0,-2,7,-16,-11.020000,35.150002,123.190002,0,0,5,0,1,0
2016-06-14_13-26-38,1465903598.29494,0,0,0,0,0,0,-2,7,-17,-10.510000,35.349998,123.940002,0,0,5,0,1,0
2016-06-14_13-26-38,1465903598.33246,0,0,0,0,0,0,-3,9,-23,-9.670000,33.900002,124.070000,0,0,5,0,1,0
2016-06-14_13-26-38,1465903598.36977,0,0,0,0,0,0,-2,13,-15,-8.290000,30.740000,124.430000,0,0,5,0,1,0
2016-06-14_13-26-38,1465903598.44497,0,0,0,0,0,0,0,13,-17,-6.660000,24.969999,126.050003,0,0,5,0,1,0
2016-06-14_13-26-38,1465903598.48248,0,0,0,0,0,0,0,8,-18,-6.070000,20.129999,128.710007,0,0,5,0,1,0
2016-06-14_13-26-38,1465903598.59424,0,0,0,0,0,0,0,5,-16,-5.890000,18.120001,130.300003,1,0,5,0,1,0
2016-06-14_13-26-38,1465903598.59673,0,0,0,0,0,0,0,3,-11,-5.510000,17.600000,130.809998,0,0,5,0,1,0
2016-06-14_13-26-38,1465903598.63264,0,0,0,0,0,0,0,2,-10,-4.710000,16.469999,130.960007,0,0,5,0,1,0
2016-06-14_13-26-38,1465903598.66996,0,0,0,0,0,0,0,1,-10,-3.770000,15.160000,131.240005,0,0,5,0,1,0
2016-06-14_13-26-38,1465903598.74496,0,0,0,0,0,0,0,3,-11,-2.710000,14.250000,131.699997,0,0,5,0,1,0
2016-06-14_13-26-38,1465903598.78226,0,0,0,0,0,0,0,2,-14,-1.650000,13.380000,132.580002,0,0,5,0,1,0
2016-06-14_13-26-38,1465903598.82003,0,0,0,0,0,0,0,1,-19,-0.540000,11.970000,133.429993,0,0,5,0,1,0
2016-06-14_13-26-38,1465903598.89510,0,0,0,0,0,0,0,0,-18,0.140000,9.960000,134.270004,0,0,5,0,1,0
2016-06-14_13-26-38,1465903598.93245,0,0,0,0,0,0,-1,0,-22,0.420000,8.480000,135.000000,0,0,5,0,1,0
2016-06-14_13-26-38,1465903598.96997,0,0,0,0,0,0,-3,0,-15,0.300000,7.820000,136.199997,0,0,5,0,1,0
2016-06-14_13-26-39,1465903599.04507,0,0,0,0,0,0,-4,0,-17,-0.020000,6.530000,137.910004,1,0,5,0,1,0
2016-06-14_13-26-39,1465903599.08245,0,0,0,0,0,0,-3,-1,-18,-0.350000,5.900000,140.009995,0,0,5,0,1,0
2016-06-14_13-26-39,1465903599.12020,0,0,0,0,0,0,-2,-1,-15,-0.100000,5.850000,141.449997,0,0,5,0,1,0
2016-06-14_13-26-39,1465903599.26942,0,0,0,0,0,0,-2,0,-11,0.150000,5.990000,142.169998,0,0,5,0,1,0
2016-06-14_13-26-39,1465903599.34429,0,0,0,0,0,0,-1,0,-10,-0.290000,6.490000,142.830002,0,0,5,0,1,0
2016-06-14_13-26-39,1465903599.38186,0,0,0,0,0,0,0,0,-11,-0.930000,6.930000,143.399994,0,0,5,0,1,0
2016-06-14_13-26-39,1465903599.38401,0,0,0,0,0,0,0,0,-12,-1.340000,7.120000,143.750000,0,0,5,0,1,0
2016-06-14_13-26-39,1465903599.38452,0,0,0,0,0,0,-1,0,-14,-1.390000,7.080000,143.789993,0,0,5,0,1,0
2016-06-14_13-26-39,1465903599.42032,0,0,0,0,0,0,-1,0,-19,-1.200000,6.870000,143.550003,0,0,5,0,1,0
2016-06-14_13-26-39,1465903599.49497,0,0,0,0,0,0,-1,0,-19,-1.160000,5.860000,143.320007,0,0,5,0,1,0
2016-06-14_13-26-39,1465903599.56936,0,0,0,0,0,0,0,-1,-22,-1.290000,5.020000,142.979996,0,0,5,0,1,0
2016-06-14_13-26-39,1465903599.57149,0,0,0,0,0,0,0,3,-14,-0.900000,4.590000,142.039993,0,0,5,0,1,0
2016-06-14_13-26-39,1465903599.68188,0,0,0,0,0,0,1,4,-18,-1.530000,4.550000,141.630005,0,0,5,0,1,0
2016-06-14_13-26-39,1465903599.68408,0,0,0,0,0,0,2,4,-18,-2.470000,4.290000,141.690002,0,0,5,0,1,0
2016-06-14_13-26-39,1465903599.72007,0,0,0,0,0,0,1,3,-15,-2.800000,4.340000,141.429993,0,0,5,0,1,0
2016-06-14_13-26-39,1465903599.79507,0,0,0,0,0,0,0,1,-12,-2.370000,4.510000,140.869995,1,0,5,0,1,0
2016-06-14_13-26-39,1465903599.83247,0,0,0,0,0,0,0,0,-11,-1.560000,4.330000,140.500000,0,0,5,0,1,0
2016-06-14_13-26-39,1465903599.86994,0,0,0,0,0,0,0,0,-12,-0.840000,4.170000,140.529999,0,0,5,0,1,0
2016-06-14_13-26-39,1465903599.94502,0,0,0,0,0,0,0,2,-13,-0.320000,4.470000,140.619995,0,0,5,0,1,0
2016-06-14_13-26-39,1465903599.98254,0,0,0,0,0,0,0,2,-15,0.280000,4.740000,140.460007,0,0,5,0,1,0
2016-06-14_13-26-40,1465903600.02006,0,0,0,0,0,0,0,0,-19,1.550000,4.190000,139.970001,0,0,5,0,1,0
2016-06-14_13-26-40,1465903600.09500,0,0,0,0,0,0,0,-1,-20,2.700000,3.390000,139.550003,0,0,5,0,1,0
2016-06-14_13-26-40,1465903600.13258,0,0,0,0,0,0,-1,-1,-20,2.960000,3.060000,139.589996,0,0,5,0,1,0
2016-06-14_13-26-40,1465903600.17000,0,0,0,0,0,0,-4,-2,-16,2.820000,3.010000,139.990005,0,0,5,0,1,0
2016-06-14_13-26-40,1465903600.24500,0,0,0,0,0,0,-5,-2,-17,3.150000,3.120000,140.050003,1,0,5,0,1,0
2016-06-14_13-26-40,1465903600.31931,0,0,0,0,0,0,-5,-1,-16,3.640000,3.160000,139.479996,0,0,5,0,1,0
2016-06-14_13-26-40,1465903600.32146,0,0,0,0,0,0,-3,0,-15,3.450000,3.270000,138.860001,0,0,5,0,1,0
2016-06-14_13-26-40,1465903600.39500,0,0,0,0,0,0,-2,0,-12,2.660000,3.620000,138.479996,0,0,5,0,1,0
2016-06-14_13-26-40,1465903600.43240,0,0,0,0,0,0,-1,0,-11,1.820000,3.890000,138.139999,0,0,5,0,1,0
2016-06-14_13-26-40,1465903600.47000,0,0,0,0,0,0,0,0,-11,1.180000,4.040000,137.929993,0,0,5,0,1,0
2016-06-14_13-26-40,1465903600.54499,0,0,0,0,0,0,0,-1,-12,0.820000,4.320000,137.899994,0,0,5,0,1,0
2016-06-14_13-26-40,1465903600.58251,0,0,0,0,0,0,0,-1,-14,0.710000,4.840000,137.869995,0,0,5,0,1,0
2016-06-14_13-26-40,1465903600.62007,0,0,0,0,0,0,0,-2,-20,0.200000,5.190000,137.839996,0,0,5,0,1,0
2016-06-14_13-26-40,1465903600.76946,0,0,0,0,0,0,0,-1,-22,-0.620000,4.940000,137.589996,0,0,5,0,1,0
2016-06-14_13-26-40,1465903600.77180,0,0,0,0,0,0,1,0,-21,-1.270000,4.650000,137.149994,0,0,5,0,1,0
2016-06-14_13-26-40,1465903600.77232,0,0,0,0,0,0,1,4,-17,-1.810000,4.310000,136.779999,0,0,5,0,1,0
2016-06-14_13-26-40,1465903600.92014,0,0,0,0,0,0,2,4,-17,-2.950000,4.530000,136.929993,0,0,5,0,1,0
2016-06-14_13-26-40,1465903600.92251,0,0,0,0,0,0,2,4,-16,-3.720000,4.210000,137.279999,0,0,5,0,1,0
2016-06-14_13-26-40,1465903600.92295,0,0,0,0,0,0,1,3,-14,-4.410000,4.270000,137.649994,1,0,5,0,1,0
2016-06-14_13-26-40,1465903600.99504,0,0,0,0,0,0,0,2,-11,-4.930000,4.860000,138.059998,0,0,5,0,1,0
2016-06-14_13-26-41,1465903601.06975,0,0,0,0,0,0,1,1,-12,-5.110000,5.120000,138.250000,0,0,5,0,1,0
2016-06-14_13-26-41,1465903601.07181,0,0,0,0,0,0,1,0,-12,-4.980000,5.140000,137.869995,0,0,5,0,1,0
2016-06-14_13-26-41,1465903601.14506,0,0,0,0,0,0,1,0,-13,-4.610000,5.240000,136.619995,0,0,5,0,1,0
2016-06-14_13-26-41,1465903601.21942,0,0,0,0,0,0,1,3,-16,-3.910000,5.640000,134.759995,0,0,5,0,1,0
2016-06-14_13-26-41,1465903601.22160,0,0,0,0,0,0,1,4,-19,-3.400000,6.500000,133.619995,0,0,5,0,1,0
2016-06-14_13-26-41,1465903601.33185,0,0,0,0,0,0,1,2,-23,-2.770000,6.580000,133.559998,0,0,5,0,1,0
2016-06-14_13-26-41,1465903601.33400,0,0,0,0,0,0,-1,1,-21,-2.020000,6.230000,133.970001,0,0,5,0,1,0
2016-06-14_13-26-41,1465903601.37006,0,0,0,0,0,0,-5,1,-16,-0.960000,6.470000,134.479996,0,0,5,0,1,0
2016-06-14_13-26-41,1465903601.44504,0,0,0,0,0,0,-4,0,-15,-0.250000,6.690000,135.520004,0,0,5,0,1,0
2016-06-14_13-26-41,1465903601.48274,0,0,0,0,0,0,-4,0,-17,-0.370000,6.110000,137.179993,0,0,5,0,1,0
2016-06-14_13-26-41,1465903601.51996,0,0,0,0,0,0,-2,0,-15,-0.530000,6.090000,138.550003,1,0,5,0,1,0
2016-06-14_13-26-41,1465903601.59505,0,0,0,0,0,0,-1,0,-11,-0.640000,6.500000,139.539993,0,0,5,0,1,0
2016-06-14_13-26-41,1465903601.63266,0,0,0,0,0,0,0,0,-10,-1.180000,6.690000,140.279999,0,0,5,0,1,0
2016-06-14_13-26-41,1465903601.66986,0,0,0,0,0,0,0,0,-11,-2.110000,6.370000,140.669998,0,0,5,0,1,0
2016-06-14_13-26-41,1465903601.74505,0,0,0,0,0,0,0,0,-13,-2.980000,6.310000,140.759995,0,0,5,0,1,0
2016-06-14_13-26-41,1465903601.78268,0,0,0,0,0,0,0,0,-15,-3.530000,6.860000,140.570007,0,0,5,0,1,0
2016-06-14_13-26-41,1465903601.82011,0,0,0,0,0,0,1,-1,-18,-3.810000,7.630000,139.929993,0,0,5,0,1,0
2016-06-14_13-26-41,1465903601.93211,0,0,0,0,0,0,0,-1,-19,-4.230000,8.280000,138.929993,0,0,5,0,1,0
2016-06-14_13-26-41,1465903601.93431,0,0,0,0,0,0,1,1,-21,-4.520000,10.040000,137.130005,0,0,5,0,1,0
2016-06-14_13-26-41,1465903601.97005,0,0,0,0,0,0,0,9,-16,-4.870000,13.340000,134.860001,0,0,5,0,1,0
2016-06-14_13-26-42,1465903602.04505,0,0,0,0,0,0,0,11,-16,-5.040000,16.410000,133.059998,0,0,5,0,1,0
2016-06-14_13-26-42,1465903602.08254,0,0,0,0,0,0,0,8,-15,-5.310000,17.740000,132.009995,0,0,5,0,1,0
2016-06-14_13-26-42,1465903602.15748,0,0,0,0,0,0,0,5,-11,-5.860000,18.680000,131.660004,0,0,5,0,1,0
2016-06-14_13-26-42,1465903602.19507,0,0,0,0,0,0,-1,2,-10,-5.600000,19.250000,131.639999,0,0,5,0,1,0
2016-06-14_13-26-42,1465903602.23254,0,0,0,0,0,0,-2,1,-10,-4.750000,19.200001,131.149994,1,0,5,0,1,0
2016-06-14_13-26-42,1465903602.27005,0,0,0,0,0,0,-2,2,-12,-4.150000,19.030001,130.550003,0,0,5,0,1,0
2016-06-14_13-26-42,1465903602.34484,0,0,0,0,0,0,-1,5,-15,-3.370000,18.620001,129.949997,0,0,5,0,1,0
2016-06-14_13-26-42,1465903602.38254,0,0,0,0,0,0,-2,6,-16,-2.640000,18.090000,129.759995,0,0,5,0,1,0
2016-06-14_13-26-42,1465903602.42101,0,0,0,0,0,0,-1,5,-17,-2.290000,16.750000,129.949997,0,0,5,0,1,0
2016-06-14_13-26-42,1465903602.49506,0,0,0,0,0,0,-1,4,-19,-2.630000,14.820000,130.610001,0,0,5,0,1,0
2016-06-14_13-26-42,1465903602.53256,0,0,0,0,0,0,-2,2,-15,-3.090000,13.480000,131.339996,0,0,5,0,1,0
2016-06-14_13-26-42,1465903602.57012,0,0,0,0,0,0,-4,1,-17,-3.490000,12.240000,132.289993,0,0,5,0,1,0
2016-06-14_13-26-42,1465903602.64507,0,0,0,0,0,0,-5,0,-19,-3.610000,11.650000,133.380005,0,0,5,0,1,0
2016-06-14_13-26-42,1465903602.71948,0,0,0,0,0,0,-6,1,-16,-3.920000,12.030000,133.910004,1,0,5,0,1,0
2016-06-14_13-26-42,1465903602.72183,0,0,0,0,0,0,-4,2,-14,-5.180000,12.080000,134.059998,0,0,5,0,1,0
2016-06-14_13-26-42,1465903602.79509,0,0,0,0,0,0,-2,3,-10,-6.460000,11.810000,134.190002,0,0,5,0,1,0
2016-06-14_13-26-42,1465903602.83255,0,0,0,0,0,0,0,2,-10,-7.330000,11.090000,135.339996,0,0,5,0,1,0
2016-06-14_13-26-42,1465903602.87014,0,0,0,0,0,0,0,2,-11,-7.730000,10.090000,137.580002,0,0,5,0,1,0
2016-06-14_13-26-42,1465903602.94508,0,0,0,0,0,0,-1,2,-12,-7.610000,10.070000,140.350006,0,0,5,0,1,0
2016-06-14_13-26-42,1465903602.98260,0,0,0,0,0,0,0,1,-16,-7.540000,11.620000,143.419998,0,0,5,0,1,0
2016-06-14_13-26-43,1465903603.05744,0,0,0,0,0,0,0,0,-20,-8.060000,12.500000,146.389999,0,0,5,0,1,0
2016-06-14_13-26-43,1465903603.09506,0,0,0,0,0,0,0,3,-20,-8.590000,12.180000,148.529999,0,0,5,0,1,0
2016-06-14_13-26-43,1465903603.13264,0,0,0,0,0,0,0,3,-17,-8.640000,10.970000,150.639999,0,0,5,0,1,0
2016-06-14_13-26-43,1465903603.16988,0,0,0,0,0,0,0,5,-13,-9.140000,8.520000,153.910004,0,0,5,0,1,0
2016-06-14_13-26-43,1465903603.24510,0,0,0,0,0,0,2,7,-17,-10.640000,7.440000,159.330002,0,0,5,0,1,0
2016-06-14_13-26-43,1465903603.31923,0,0,0,0,0,0,2,9,-19,-11.450000,8.120000,167.199997,0,0,5,0,1,0
2016-06-14_13-26-43,1465903603.32132,0,0,0,0,0,0,0,5,-17,-11.050000,11.090000,177.539993,1,0,5,0,1,0
2016-06-14_13-26-43,1465903603.39508,0,0,0,0,0,0,0,1,-12,-8.600000,13.490000,187.580002,0,0,5,0,1,0
2016-06-14_13-26-43,1465903603.43254,0,0,0,0,0,0,0,0,-11,-6.630000,13.920000,195.639999,0,0,5,0,1,0
2016-06-14_13-26-43,1465903603.47009,0,0,0,0,0,0,0,0,-13,-6.130000,13.770000,201.529999,0,0,5,0,1,0
2016-06-14_13-26-43,1465903603.54523,0,0,0,0,0,0,0,1,-12,-5.980000,13.730000,205.600006,0,0,5,0,1,0
2016-06-14_13-26-43,1465903603.58240,0,0,0,0,0,0,0,3,-14,-5.630000,13.810000,208.720001,0,0,5,0,1,0
2016-06-14_13-26-43,1465903603.62027,0,0,0,0,0,0,0,4,-18,-5.340000,14.020000,211.669998,0,0,5,0,1,0
2016-06-14_13-26-43,1465903603.69511,0,0,0,0,0,0,0,3,-18,-4.920000,14.150000,214.270004,0,0,5,0,1,0
2016-06-14_13-26-43,1465903603.73258,0,0,0,0,0,0,0,3,-18,-4.360000,14.210000,216.509995,0,0,5,0,1,0
2016-06-14_13-26-43,1465903603.77007,0,0,0,0,0,0,0,2,-18,-4.200000,14.080000,219.080002,0,0,5,0,1,0
2016-06-14_13-26-43,1465903603.84546,0,0,0,0,0,0,-1,0,-16,-4.190000,12.640000,221.789993,0,0,5,0,1,0
2016-06-14_13-26-43,1465903603.88259,0,0,0,0,0,0,0,-2,-16,-4.670000,10.530000,224.529999,0,0,5,0,1,0
2016-06-14_13-26-43,1465903603.92027,0,0,0,0,0,0,-1,-2,-17,-5.500000,8.870000,226.839996,0,0,5,0,1,0
2016-06-14_13-26-43,1465903603.99489,0,0,0,0,0,0,-1,-1,-15,-5.680000,8.090000,228.289993,1,0,5,0,1,0
2016-06-14_13-26-44,1465903604.03259,0,0,0,0,0,0,0,0,-12,-4.860000,8.110000,228.789993,0,0,5,0,1,0
2016-06-14_13-26-44,1465903604.07037,0,0,0,0,0,0,0,1,-11,-4.230000,8.570000,229.740005,0,0,5,0,1,0
2016-06-14_13-26-44,1465903604.14512,0,0,0,0,0,0,-1,0,-13,-4.080000,8.920000,231.729996,0,0,5,0,1,0
2016-06-14_13-26-44,1465903604.21951,0,0,0,0,0,0,-1,1,-14,-3.490000,9.310000,233.690002,0,0,5,0,1,0
2016-06-14_13-26-44,1465903604.22163,0,0,0,0,0,0,0,1,-17,-2.710000,9.670000,236.460007,0,0,5,0,1,0
2016-06-14_13-26-44,1465903604.29511,0,0,0,0,0,0,0,0,-18,-2.610000,9.360000,241.000000,0,0,5,0,1,0
2016-06-14_13-26-44,1465903604.33260,0,0,0,0,0,0,0,-1,-20,-2.900000,8.900000,246.740005,0,0,5,0,1,0
2016-06-14_13-26-44,1465903604.40743,0,0,0,0,0,0,0,0,-17,-3.200000,9.410000,252.570007,0,0,5,0,1,0
2016-06-14_13-26-44,1465903604.44510,0,0,0,0,0,0,0,2,-15,-4.290000,10.510000,257.839996,0,0,5,0,1,0
2016-06-14_13-26-44,1465903604.48258,0,0,0,0,0,0,0,4,-18,-5.580000,11.540000,261.809998,0,0,5,0,1,0
2016-06-14_13-26-44,1465903604.52035,0,0,0,0,0,0,0,3,-19,-6.050000,12.140000,264.359985,1,0,5,0,1,0
2016-06-14_13-26-44,1465903604.59512,0,0,0,0,0,0,-1,2,-15,-5.430000,12.970000,265.619995,0,0,5,0,1,0
2016-06-14_13-26-44,1465903604.63262,0,0,0,0,0,0,0,2,-12,-4.560000,13.330000,266.239990,0,0,5,0,1,0
2016-06-14_13-26-44,1465903604.70762,0,0,0,0,0,0,0,1,-13,-4.130000,12.910000,266.760010,0,0,5,0,1,0
2016-06-14_13-26-44,1465903604.74510,0,0,0,0,0,0,0,0,-13,-3.920000,12.440000,266.779999,0,0,5,0,1,0
2016-06-14_13-26-44,1465903604.81927,0,0,0,0,0,0,0,1,-12,-3.270000,12.310000,265.559998,0,0,5,0,1,0
2016-06-14_13-26-44,1465903604.82136,0,0,0,0,0,0,0,2,-14,-2.480000,12.270000,263.709991,0,0,5,0,1,0
2016-06-14_13-26-44,1465903604.89513,0,0,0,0,0,0,0,4,-18,-1.780000,12.420000,261.750000,0,0,5,0,1,0
2016-06-14_13-26-44,1465903604.93276,0,0,0,0,0,0,0,4,-18,-1.620000,13.300000,260.049988,0,0,5,0,1,0
2016-06-14_13-26-44,1465903604.97013,0,0,0,0,0,0,0,5,-19,-1.700000,14.060000,258.440002,0,0,5,0,1,0
2016-06-14_13-26-45,1465903605.08296,0,0,0,0,0,0,-1,4,-17,-1.840000,14.530000,257.390015,0,0,5,0,1,0
2016-06-14_13-26-45,1465903605.08502,0,0,0,0,0,0,-3,0,-15,-2.030000,13.980000,257.450012,0,0,5,0,1,0
2016-06-14_13-26-45,1465903605.12020,0,0,0,0,0,0,-4,0,-17,-1.860000,13.020000,258.149994,0,0,5,0,1,0
2016-06-14_13-26-45,1465903605.19512,0,0,0,0,0,0,-4,0,-17,-1.210000,13.130000,258.750000,0,0,5,0,1,0
2016-06-14_13-26-45,1465903605.23293,0,0,0,0,0,0,-4,0,-14,-0.600000,14.400000,259.149994,1,0,5,0,1,0
2016-06-14_13-26-45,1465903605.27020,0,0,0,0,0,0,-2,1,-10,0.000000,15.860000,258.959991,0,0,5,0,1,0
2016-06-14_13-26-45,1465903605.38196,0,0,0,0,0,0,-1,1,-10,-0.350000,16.870001,258.739990,0,0,5,0,1,0
2016-06-14_13-26-45,1465903605.38405,0,0,0,0,0,0,-1,1,-11,-1.280000,17.410000,258.450012,0,0,5,0,1,0
2016-06-14_13-26-45,1465903605.42022,0,0,0,0,0,0,-1,2,-12,-2.060000,17.950001,257.980011,0,0,5,0,1,0
2016-06-14_13-26-45,1465903605.49551,0,0,0,0,0,0,-1,3,-16,-2.430000,18.780001,257.369995,0,0,5,0,1,0
2016-06-14_13-26-45,1465903605.53274,0,0,0,0,0,0,-1,3,-18,-2.440000,19.490000,257.040009,0,0,5,0,1,0
2016-06-14_13-26-45,1465903605.57014,0,0,0,0,0,0,-2,4,-19,-2.390000,19.879999,257.399994,0,0,5,0,1,0
2016-06-14_13-26-45,1465903605.64493,0,0,0,0,0,0,-2,5,-18,-1.830000,20.930000,257.399994,0,0,5,0,1,0
2016-06-14_13-26-45,1465903605.68264,0,0,0,0,0,0,-2,7,-13,-1.530000,21.830000,256.649994,0,0,5,0,1,0
2016-06-14_13-26-45,1465903605.72030,0,0,0,0,0,0,-1,8,-14,-2.190000,22.020000,255.899994,0,0,5,0,1,0
2016-06-14_13-26-45,1465903605.79515,0,0,0,0,0,0,0,8,-16,-3.250000,21.750000,255.490005,0,0,5,0,1,0
2016-06-14_13-26-45,1465903605.83274,0,0,0,0,0,0,-1,6,-14,-4.000000,21.639999,254.669998,1,0,5,0,1,0
2016-06-14_13-26-45,1465903605.87023,0,0,0,0,0,0,0,4,-11,-3.980000,20.840000,251.759995,0,0,5,0,1,0
2016-06-14_13-26-45,1465903605.94518,0,0,0,0,0,0,0,4,-11,-4.010000,18.290001,246.399994,0,0,5,0,1,0
2016-06-14_13-26-45,1465903605.98264,0,0,0,0,0,0,0,4,-12,-4.130000,14.990000,239.970001,0,0,5,0,1,0
2016-06-14_13-26-46,1465903606.02028,0,0,0,0,0,0,0,4,-12,-3.760000,12.390000,233.550003,0,0,5,0,1,0
2016-06-14_13-26-46,1465903606.09515,0,0,0,0,0,0,1,5,-15,-3.290000,11.120000,228.000000,0,0,5,0,1,0
2016-06-14_13-26-46,1465903606.13263,0,0,0,0,0,0,2,3,-18,-2.940000,10.150000,224.029999,0,0,5,0,1,0
2016-06-14_13-26-46,1465903606.17024,0,0,0,0,0,0,2,3,-18,-2.390000,8.740000,221.449997,0,0,5,0,1,0
2016-06-14_13-26-46,1465903606.24517,0,0,0,0,0,0,0,1,-20,-2.380000,7.040000,220.360001,0,0,5,0,1,0
2016-06-14_13-26-46,1465903606.28265,0,0,0,0,0,0,-1,1,-14,-1.770000,5.290000,219.190002,0,0,5,0,1,0
2016-06-14_13-26-46,1465903606.32042,0,0,0,0,0,0,-2,0,-16,-0.770000,3.760000,216.740005,0,0,5,0,1,0
2016-06-14_13-26-46,1465903606.39518,0,0,0,0,0,0,-3,0,-16,0.180000,2.700000,212.389999,0,0,5,0,1,0
2016-06-14_13-26-46,1465903606.43271,0,0,0,0,0,0,-2,1,-17,1.250000,2.780000,206.539993,1,0,5,0,1,0
2016-06-14_13-26-46,1465903606.46996,0,0,0,0,0,0,-2,2,-13,1.840000,3.880000,201.089996,0,0,5,0,1,0
2016-06-14_13-26-46,1465903606.54516,0,0,0,0,0,0,-1,2,-12,1.540000,4.440000,197.050003,0,0,5,0,1,0
2016-06-14_13-26-46,1465903606.58274,0,0,0,0,0,0,0,0,-11,1.170000,4.420000,194.179993,0,0,5,0,1,0
2016-06-14_13-26-46,1465903606.62024,0,0,0,0,0,0,0,-1,-11,0.860000,4.080000,191.699997,0,0,5,0,1,0
2016-06-14_13-26-46,1465903606.69516,0,0,0,0,0,0,0,-1,-12,0.300000,4.020000,188.720001,0,0,5,0,1,0
2016-06-14_13-26-46,1465903606.73282,0,0,0,0,0,0,0,-1,-15,-0.410000,3.820000,184.789993,0,0,5,0,1,0
2016-06-14_13-26-46,1465903606.77014,0,0,0,0,0,0,0,0,-20,-0.660000,3.470000,179.649994,0,0,5,0,1,0
2016-06-14_13-26-46,1465903606.84518,0,0,0,0,0,0,0,0,-21,-0.820000,2.960000,174.339996,0,0,5,0,1,0
2016-06-14_13-26-46,1465903606.88264,0,0,0,0,0,0,1,0,-22,-0.840000,2.180000,169.449997,0,0,5,0,1,0
2016-06-14_13-26-46,1465903606.92088,0,0,0,0,0,0,4,2,-15,-0.640000,1.630000,165.070007,0,0,5,0,1,0
2016-06-14_13-26-46,1465903606.99527,0,0,0,0,0,0,4,0,-16,-1.490000,1.260000,161.509995,0,0,5,0,1,0
2016-06-14_13-26-47,1465903607.03265,0,0,0,0,0,0,5,0,-16,-1.520000,0.750000,157.940002,0,0,5,0,1,0
2016-06-14_13-26-47,1465903607.07015,0,0,0,0,0,0,4,1,-15,-1.520000,0.500000,154.389999,1,0,5,0,1,0
2016-06-14_13-26-47,1465903607.18204,0,0,0,0,0,0,2,1,-13,-2.250000,1.050000,151.419998,0,0,5,0,1,0
2016-06-14_13-26-47,1465903607.18417,0,0,0,0,0,0,2,2,-12,-2.830000,1.950000,149.259995,0,0,5,0,1,0
2016-06-14_13-26-47,1465903607.22038,0,0,0,0,0,0,2,2,-12,-3.350000,2.800000,148.660004,0,0,5,0,1,0
2016-06-14_13-26-47,1465903607.29501,0,0,0,0,0,0,2,2,-12,-3.320000,3.500000,149.600006,0,0,5,0,1,0
2016-06-14_13-26-47,1465903607.33266,0,0,0,0,0,0,2,1,-13,-2.950000,3.960000,151.270004,0,0,5,0,1,0
2016-06-14_13-26-47,1465903607.37025,0,0,0,0,0,0,2,0,-17,-2.750000,3.880000,153.080002,0,0,5,0,1,0
2016-06-14_13-26-47,1465903607.44516,0,0,0,0,0,0,2,0,-17,-2.220000,2.950000,154.470001,0,0,5,0,1,0
2016-06-14_13-26-47,1465903607.48266,0,0,0,0,0,0,1,0,-22,-1.880000,1.690000,155.850006,0,0,5,0,1,0
2016-06-14_13-26-47,1465903607.52082,0,0,0,0,0,0,-1,3,-15,-1.520000,1.490000,157.369995,0,0,5,0,1,0
2016-06-14_13-26-47,1465903607.59518,0,0,0,0,0,0,-2,3,-18,-1.150000,2.050000,159.080002,0,0,5,0,1,0
2016-06-14_13-26-47,1465903607.63269,0,0,0,0,0,0,-2,2,-17,-0.780000,2.280000,161.210007,1,0,5,0,1,0
2016-06-14_13-26-47,1465903607.67024,0,0,0,0,0,0,-2,1,-16,-0.720000,2.350000,164.089996,0,0,5,0,1,0
2016-06-14_13-26-47,1465903607.74546,0,0,0,0,0,0,-1,0,-12,-0.880000,3.450000,167.350006,0,0,5,0,1,0
2016-06-14_13-26-47,1465903607.78267,0,0,0,0,0,0,0,0,-11,-1.740000,5.430000,170.669998,0,0,5,0,1,0
2016-06-14_13-26-47,1465903607.82012,0,0,0,0,0,0,0,0,-11,-3.190000,7.290000,173.610001,0,0,5,0,1,0
2016-06-14_13-26-47,1465903607.89517,0,0,0,0,0,0,0,0,-11,-4.430000,8.420000,175.820007,0,0,5,0,1,0
2016-06-14_13-26-47,1465903607.93267,0,0,0,0,0,0,0,1,-14,-5.250000,9.110000,177.470001,0,0,5,0,1,0
2016-06-14_13-26-47,1465903607.97006,0,0,0,0,0,0,0,2,-19,-5.630000,9.980000,178.919998,0,0,5,0,1,0
2016-06-14_13-26-48,1465903608.04523,0,0,0,0,0,0,0,0,-20,-5.580000,10.590000,179.710007,0,0,5,0,1,0
2016-06-14_13-26-48,1465903608.08271,0,0,0,0,0,0,0,0,-24,-5.370000,11.110000,178.979996,0,0,5,0,1,0
2016-06-14_13-26-48,1465903608.11990,0,0,0,0,0,0,0,2,-20,-4.520000,11.970000,175.820007,0,0,5,0,1,0
2016-06-14_13-26-48,1465903608.15760,0,0,0,0,0,0,1,12,-12,-2.270000,12.510000,172.309998,0,0,5,0,1,0
2016-06-14_13-26-48,1465903608.23263,0,0,0,0,0,0,0,4,-13,-0.300000,12.380000,172.289993,0,0,5,0,1,0
2016-06-14_13-26-48,1465903608.27019,0,0,0,0,0,0,-1,1,-14,-0.150000,12.600000,171.279999,0,0,5,0,1,0
2016-06-14_13-26-48,1465903608.34519,0,0,0,0,0,0,0,3,-13,-2.130000,13.380000,168.050003,1,0,5,0,1,0
2016-06-14_13-26-48,1465903608.41953,0,0,0,0,0,0,0,5,-12,-4.600000,14.040000,164.110001,0,0,5,0,1,0
2016-06-14_13-26-48,1465903608.42171,0,0,0,0,0,0,0,3,-12,-6.570000,15.200000,160.649994,0,0,5,0,1,0
2016-06-14_13-26-48,1465903608.49519,0,0,0,0,0,0,0,3,-12,-7.860000,16.440001,157.619995,0,0,5,0,1,0
2016-06-14_13-26-48,1465903608.53269,0,0,0,0,0,0,0,6,-11,-5.770000,16.170000,154.059998,0,0,5,0,1,0
2016-06-14_13-26-48,1465903608.57017,0,0,0,0,0,0,3,-1,-7,-6.950000,16.809999,152.820007,0,0,5,0,1,0
2016-06-14_13-26-48,1465903608.64556,0,0,0,0,0,0,1,4,-19,-8.100000,16.719999,153.210007,0,0,5,0,1,0
2016-06-14_13-26-48,1465903608.68269,0,0,0,0,0,0,0,4,-20,-9.110000,17.129999,153.940002,0,0,5,0,1,0
2016-06-14_13-26-48,1465903608.72007,0,0,0,0,0,0,-1,5,-19,-8.880000,17.410000,153.610001,0,0,5,0,1,0
2016-06-14_13-26-48,1465903608.86966,0,0,0,0,0,0,-3,6,-16,-9.040000,17.510000,153.380005,1,0,5,0,1,0
2016-06-14_13-26-48,1465903608.87194,0,0,0,0,0,0,-3,6,-15,-9.290000,16.940001,153.520004,0,0,5,0,1,0
2016-06-14_13-26-48,1465903608.87239,0,0,0,0,0,0,-4,6,-15,-9.390000,16.200001,154.139999,0,0,5,0,1,0
2016-06-14_13-26-48,1465903608.94504,0,0,0,0,0,0,-3,6,-13,-9.350000,16.260000,155.770004,0,0,5,0,1,0
2016-06-14_13-26-48,1465903608.98280,0,0,0,0,0,0,-2,5,-11,-9.440000,16.650000,158.089996,0,0,5,0,1,0
2016-06-14_13-26-49,1465903609.02020,0,0,0,0,0,0,-2,4,-11,-9.670000,16.990000,160.600006,0,0,5,0,1,0
2016-06-14_13-26-49,1465903609.09521,0,0,0,0,0,0,-2,3,-12,-9.880000,17.340000,162.690002,0,0,5,0,1,0
2016-06-14_13-26-49,1465903609.13269,0,0,0,0,0,0,-2,3,-10,-10.070000,17.980000,164.360001,0,0,5,0,1,0
2016-06-14_13-26-49,1465903609.24458,0,0,0,0,0,0,-3,5,-14,-10.550000,18.370001,166.369995,0,0,5,0,1,0
2016-06-14_13-26-49,1465903609.24670,0,0,0,0,0,0,-3,6,-17,-10.930000,19.000000,168.919998,0,0,5,0,1,0
2016-06-14_13-26-49,1465903609.31966,0,0,0,0,0,0,-2,8,-16,-10.810000,19.059999,172.039993,0,0,5,0,1,0
2016-06-14_13-26-49,1465903609.32180,0,0,0,0,0,0,-1,10,-18,-10.120000,18.510000,177.339996,0,0,5,0,1,0
2016-06-14_13-26-49,1465903609.43280,0,0,0,0,0,0,0,8,-16,-8.160000,17.639999,186.449997,0,0,5,0,1,0
2016-06-14_13-26-49,1465903609.43486,0,0,0,0,0,0,1,6,-13,-5.670000,16.840000,196.979996,0,0,5,0,1,0
2016-06-14_13-26-49,1465903609.47024,0,0,0,0,0,0,0,6,-13,-4.230000,15.470000,206.919998,0,0,5,0,1,0
2016-06-14_13-26-49,1465903609.54527,0,0,0,0,0,0,0,4,-16,-4.340000,13.800000,215.789993,0,0,5,0,1,0
2016-06-14_13-26-49,1465903609.58289,0,0,0,0,0,0,0,2,-15,-5.300000,12.410000,222.949997,1,0,5,0,1,0
2016-06-14_13-26-49,1465903609.61994,0,0,0,0,0,0,0,1,-14,-6.060000,11.750000,228.020004,0,0,5,0,1,0
2016-06-14_13-26-49,1465903609.69526,0,0,0,0,0,0,0,0,-12,-6.040000,11.040000,231.460007,0,0,5,0,1,0
2016-06-14_13-26-49,1465903609.76934,0,0,0,0,0,0,0,0,-12,-5.740000,10.190000,234.059998,0,0,5,0,1,0
2016-06-14_13-26-49,1465903609.77173,0,0,0,0,0,0,0,0,-12,-5.340000,9.400000,236.059998,0,0,5,0,1,0
2016-06-14_13-26-49,1465903609.84525,0,0,0,0,0,0,0,2,-16,-4.720000,8.650000,237.289993,0,0,5,0,1,0
2016-06-14_13-26-49,1465903609.88287,0,0,0,0,0,0,0,2,-19,-4.120000,8.760000,238.029999,0,0,5,0,1,0
2016-06-14_13-26-49,1465903609.92007,0,0,0,0,0,0,0,2,-19,-3.720000,8.900000,238.389999,0,0,5,0,1,0
2016-06-14_13-26-49,1465903609.99523,0,0,0,0,0,0,0,0,-18,-3.640000,8.980000,238.020004,0,0,5,0,1,0
2016-06-14_13-26-50,1465903610.03254,0,0,0,0,0,0,-1,2,-16,-3.830000,9.400000,236.880005,0,0,5,0,1,0
2016-06-14_13-26-50,1465903610.07023,0,0,0,0,0,0,-3,0,-15,-4.040000,9.580000,236.500000,0,0,5,0,1,0
2016-06-14_13-26-50,1465903610.14524,0,0,0,0,0,0,-4,0,-17,-4.150000,9.480000,236.809998,0,0,5,0,1,0
2016-06-14_13-26-50,1465903610.18282,0,0,0,0,0,0,-4,0,-16,-3.940000,9.500000,237.169998,1,0,5,0,1,0
2016-06-14_13-26-50,1465903610.25780,0,0,0,0,0,0,-4,0,-14,-4.020000,9.990000,237.529999,0,0,5,0,1,0
2016-06-14_13-26-50,1465903610.29522,0,0,0,0,0,0,-3,1,-12,-4.540000,11.370000,237.949997,0,0,5,0,1,0
2016-06-14_13-26-50,1465903610.33275,0,0,0,0,0,0,-1,1,-11,-5.270000,12.640000,238.179993,0,0,5,0,1,0
2016-06-14_13-26-50,1465903610.37032,0,0,0,0,0,0,-1,1,-12,-6.110000,13.120000,238.350006,0,0,5,0,1,0
2016-06-14_13-26-50,1465903610.44508,0,0,0,0,0,0,-1,1,-13,-6.790000,13.740000,238.309998,0,0,5,0,1,0
2016-06-14_13-26-50,1465903610.48282,0,0,0,0,0,0,-1,1,-16,-7.070000,14.910000,237.710007,0,0,5,0,1,0
2016-06-14_13-26-50,1465903610.52012,0,0,0,0,0,0,-2,1,-19,-7.130000,16.580000,236.550003,0,0,5,0,1,0
2016-06-14_13-26-50,1465903610.59525,0,0,0,0,0,0,-3,5,-17,-7.440000,18.440001,235.059998,0,0,5,0,1,0
2016-06-14_13-26-50,1465903610.63279,0,0,0,0,0,0,-1,7,-18,-8.400000,19.690001,233.949997,0,0,5,0,1,0
2016-06-14_13-26-50,1465903610.70774,0,0,0,0,0,0,0,7,-15,-9.490000,20.240000,233.449997,0,0,5,0,1,0
2016-06-14_13-26-50,1465903610.74550,0,0,0,0,0,0,1,7,-15,-10.080000,20.240000,233.080002,0,0,5,0,1,0
2016-06-14_13-26-50,1465903610.78284,0,0,0,0,0,0,1,7,-15,-10.350000,20.469999,232.740005,0,0,5,0,1,0
2016-06-14_13-26-50,1465903610.82021,0,0,0,0,0,0,0,8,-15,-10.860000,21.580000,232.759995,1,0,5,0,1,0
2016-06-14_13-26-50,1465903610.89527,0,0,0,0,0,0,0,7,-12,-11.300000,23.670000,232.880005,0,0,5,0,1,0
2016-06-14_13-26-50,1465903610.96965,0,0,0,0,0,0,0,6,-11,-11.310000,24.770000,232.559998,0,0,5,0,1,0
2016-06-14_13-26-50,1465903610.97348,0,0,0,0,0,0,0,4,-12,-11.080000,24.680000,232.130005,0,0,5,0,1,0
2016-06-14_13-26-51,1465903611.04528,0,0,0,0,0,0,0,4,-11,-10.800000,24.530001,231.789993,0,0,5,0,1,0
2016-06-14_13-26-51,1465903611.11972,0,0,0,0,0,0,0,4,-12,-11.030000,25.150000,231.419998,0,0,5,0,1,0
2016-06-14_13-26-51,1465903611.12183,0,0,0,0,0,0,0,6,-15,-11.500000,26.379999,231.059998,0,0,5,0,1,0
2016-06-14_13-26-51,1465903611.19533,0,0,0,0,0,0,0,8,-17,-11.780000,27.969999,230.639999,0,0,5,0,1,0
2016-06-14_13-26-51,1465903611.23283,0,0,0,0,0,0,-1,9,-17,-11.730000,29.160000,230.160004,0,0,5,0,1,0
2016-06-14_13-26-51,1465903611.27023,0,0,0,0,0,0,-2,10,-15,-11.360000,30.150000,229.979996,0,0,5,0,1,0
2016-06-14_13-26-51,1465903611.34527,0,0,0,0,0,0,-4,10,-11,-10.880000,30.559999,230.520004,0,0,5,0,1,0
2016-06-14_13-26-51,1465903611.38297,0,0,0,0,0,0,-6,10,-12,-10.540000,29.389999,232.759995,0,0,5,0,1,0
2016-06-14_13-26-51,1465903611.42052,0,0,0,0,0,0,-5,11,-13,-9.610000,26.719999,236.589996,0,0,5,0,1,0
2016-06-14_13-26-51,1465903611.53215,0,0,0,0,0,0,-4,10,-14,-7.660000,24.540001,243.149994,1,0,5,0,1,0
2016-06-14_13-26-51,1465903611.53449,0,0,0,0,0,0,-2,8,-12,-4.820000,23.440001,253.250000,0,0,5,0,1,0
2016-06-14_13-26-51,1465903611.57030,0,0,0,0,0,0,-1,4,-11,-1.890000,22.480000,266.130005,0,0,5,0,1,0
2016-06-14_13-26-51,1465903611.64526,0,0,0,0,0,0,0,0,-11,0.310000,21.120001,279.609985,0,0,5,0,1,0
2016-06-14_13-26-51,1465903611.68282,0,0,0,0,0,0,0,-1,-12,1.600000,19.940001,291.369995,0,0,5,0,1,0
2016-06-14_13-26-51,1465903611.72016,0,0,0,0,0,0,-1,0,-12,2.160000,19.379999,299.940002,0,0,5,0,1,0
2016-06-14_13-26-51,1465903611.79531,0,0,0,0,0,0,-2,0,-14,2.390000,19.020000,305.269989,0,0,5,0,1,0
2016-06-14_13-26-51,1465903611.83276,0,0,0,0,0,0,-1,0,-19,2.510000,18.139999,308.540009,0,0,5,0,1,0
2016-06-14_13-26-51,1465903611.87026,0,0,0,0,0,0,-2,0,-19,2.530000,17.110001,310.489990,0,0,5,0,1,0
2016-06-14_13-26-51,1465903611.94539,0,0,0,0,0,0,-2,0,-20,2.360000,16.170000,311.540009,0,0,5,0,1,0
2016-06-14_13-26-51,1465903611.98284,0,0,0,0,0,0,-3,4,-15,1.790000,15.490000,311.989990,0,0,5,0,1,0
2016-06-14_13-26-52,1465903612.02015,0,0,0,0,0,0,-2,5,-15,0.640000,14.820000,312.130005,0,0,5,0,1,0
2016-06-14_13-26-52,1465903612.09511,0,0,0,0,0,0,-1,5,-17,-0.710000,13.560000,312.369995,0,0,5,0,1,0
2016-06-14_13-26-52,1465903612.13292,0,0,0,0,0,0,-1,4,-17,-1.590000,12.220000,312.579987,1,0,5,0,1,0
2016-06-14_13-26-52,1465903612.17028,0,0,0,0,0,0,-1,3,-15,-1.470000,11.550000,312.609985,0,0,5,0,1,0
2016-06-14_13-26-52,1465903612.24530,0,0,0,0,0,0,0,1,-11,-0.640000,10.870000,312.540009,0,0,5,0,1,0
2016-06-14_13-26-52,1465903612.28285,0,0,0,0,0,0,0,0,-11,-0.100000,9.470000,312.750000,0,0,5,0,1,0
2016-06-14_13-26-52,1465903612.32025,0,0,0,0,0,0,0,0,-12,0.100000,7.890000,313.089996,0,0,5,0,1,0
2016-06-14_13-26-52,1465903612.39532,0,0,0,0,0,0,0,0,-14,0.220000,6.790000,313.920013,0,0,5,0,1,0
2016-06-14_13-26-52,1465903612.43293,0,0,0,0,0,0,0,1,-17,0.810000,6.190000,315.309998,0,0,5,0,1,0
2016-06-14_13-26-52,1465903612.50790,0,0,0,0,0,0,0,0,-19,1.880000,5.530000,317.380005,0,0,5,0,1,0
2016-06-14_13-26-52,1465903612.54527,0,0,0,0,0,0,0,0,-19,2.820000,4.560000,319.869995,0,0,5,0,1,0
2016-06-14_13-26-52,1465903612.58287,0,0,0,0,0,0,-1,-2,-19,3.070000,3.620000,322.369995,0,0,5,0,1,0
2016-06-14_13-26-52,1465903612.62023,0,0,0,0,0,0,-2,-2,-15,3.010000,2.400000,324.510010,0,0,5,0,1,0
2016-06-14_13-26-52,1465903612.80724,0,0,0,0,0,0,-2,-2,-15,2.390000,0.990000,327.059998,0,0,5,0,1,0
2016-06-14_13-26-52,1465903612.80945,0,0,0,0,0,0,-1,-4,-15,1.450000,-0.600000,330.329987,0,0,5,0,1,0
2016-06-14_13-26-52,1465903612.80989,0,0,0,0,0,0,-1,-3,-15,0.980000,-1.860000,333.380005,1,0,5,0,1,0
2016-06-14_13-26-52,1465903612.84529,0,0,0,0,0,0,-1,-3,-13,0.870000,-2.170000,336.049988,0,0,5,0,1,0
2016-06-14_13-26-52,1465903612.88289,0,0,0,0,0,0,0,-3,-12,1.150000,-1.750000,338.290009,0,0,5,0,1,0
2016-06-14_13-26-52,1465903612.92028,0,0,0,0,0,0,0,-3,-11,1.260000,-1.440000,339.959991,0,0,5,0,1,0
2016-06-14_13-26-52,1465903612.99533,0,0,0,0,0,0,0,-1,-12,1.420000,-1.590000,340.920013,0,0,5,0,1,0
2016-06-14_13-26-53,1465903613.03284,0,0,0,0,0,0,0,-2,-14,1.570000,-1.680000,341.779999,0,0,5,0,1,0
2016-06-14_13-26-53,1465903613.07014,0,0,0,0,0,0,0,-3,-18,1.910000,-1.580000,342.529999,0,0,5,0,1,0
2016-06-14_13-26-53,1465903613.14483,0,0,0,0,0,0,1,-4,-18,1.640000,-1.740000,343.279999,0,0,5,0,1,0
2016-06-14_13-26-53,1465903613.18292,0,0,0,0,0,0,0,-3,-22,0.820000,-1.920000,344.170013,0,0,5,0,1,0
2016-06-14_13-26-53,1465903613.21980,0,0,0,0,0,0,0,0,-19,-0.050000,-0.990000,345.329987,0,0,5,0,1,0
2016-06-14_13-26-53,1465903613.29505,0,0,0,0,0,0,0,2,-15,-0.630000,1.090000,345.890015,0,0,5,0,1,0
2016-06-14_13-26-53,1465903613.36981,0,0,0,0,0,0,0,2,-17,-1.340000,2.020000,345.730011,0,0,5,0,1,0
2016-06-14_13-26-53,1465903613.37218,0,0,0,0,0,0,0,1,-16,-1.900000,2.170000,344.779999,0,0,5,0,1,0
2016-06-14_13-26-53,1465903613.44532,0,0,0,0,0,0,0,1,-14,-1.480000,2.110000,343.109985,1,0,5,0,1,0
2016-06-14_13-26-53,1465903613.48290,0,0,0,0,0,0,0,1,-11,-0.480000,1.990000,341.660004,0,0,5,0,1,0
2016-06-14_13-26-53,1465903613.52021,0,0,0,0,0,0,0,0,-12,-0.040000,2.190000,341.079987,0,0,5,0,1,0
2016-06-14_13-26-53,1465903613.55789,0,0,0,0,0,0,0,0,-13,0.000000,2.520000,340.950012,0,0,5,0,1,0
2016-06-14_13-26-53,1465903613.63283,0,0,0,0,0,0,0,0,-14,0.210000,2.750000,340.890015,0,0,5,0,1,0
2016-06-14_13-26-53,1465903613.74447,0,0,0,0,0,0,1,1,-17,0.750000,2.570000,340.799988,0,0,5,0,1,0
2016-06-14_13-26-53,1465903613.74664,0,0,0,0,0,0,1,2,-18,0.670000,1.850000,341.309998,0,0,5,0,1,0
2016-06-14_13-26-53,1465903613.81977,0,0,0,0,0,0,1,0,-24,0.290000,0.910000,342.489990,0,0,5,0,1,0
2016-06-14_13-26-53,1465903613.82218,0,0,0,0,0,0,0,-1,-19,0.470000,0.510000,343.160004,0,0,5,0,1,0
2016-06-14_13-26-53,1465903613.93221,0,0,0,0,0,0,-2,-2,-15,1.040000,1.290000,343.500000,0,0,5,0,1,0
2016-06-14_13-26-53,1465903613.93436,0,0,0,0,0,0,-2,-2,-15,1.000000,2.000000,344.399994,0,0,5,0,1,0
2016-06-14_13-26-53,1465903613.97044,0,0,0,0,0,0,-2,-3,-17,0.540000,2.110000,345.609985,0,0,5,0,1,0
2016-06-14_13-26-54,1465903614.04534,0,0,0,0,0,0,-2,-2,-16,0.620000,2.840000,345.859985,1,0,5,0,1,0
2016-06-14_13-26-54,1465903614.11979,0,0,0,0,0,0,-1,-1,-12,0.730000,4.180000,344.600006,0,0,5,0,1,0
2016-06-14_13-26-54,1465903614.12221,0,0,0,0,0,0,0,0,-10,0.090000,5.560000,341.940002,0,0,5,0,1,0
2016-06-14_13-26-54,1465903614.19538,0,0,0,0,0,0,0,0,-11,-1.500000,6.360000,338.739990,0,0,5,0,1,0
2016-06-14_13-26-54,1465903614.23284,0,0,0,0,0,0,0,1,-12,-3.220000,6.890000,335.510010,0,0,5,0,1,0
2016-06-14_13-26-54,1465903614.27053,0,0,0,0,0,0,0,1,-13,-4.440000,7.600000,332.619995,0,0,5,0,1,0
2016-06-14_13-26-54,1465903614.34537,0,0,0,0,0,0,1,1,-18,-5.230000,8.000000,329.880005,0,0,5,0,1,0
2016-06-14_13-26-54,1465903614.38299,0,0,0,0,0,0,1,1,-19,-5.910000,7.480000,326.920013,0,0,5,0,1,0
2016-06-14_13-26-54,1465903614.42060,0,0,0,0,0,0,1,0,-23,-6.540000,6.090000,324.100006,0,0,5,0,1,0
2016-06-14_13-26-54,1465903614.49536,0,0,0,0,0,0,2,3,-19,-7.160000,4.660000,321.420013,0,0,5,0,1,0
2016-06-14_13-26-54,1465903614.53284,0,0,0,0,0,0,3,5,-15,-7.750000,3.170000,318.859985,0,0,5,0,1,0
2016-06-14_13-26-54,1465903614.57016,0,0,0,0,0,0,4,4,-16,-7.860000,1.100000,316.450012,0,0,5,0,1,0
2016-06-14_13-26-54,1465903614.64538,0,0,0,0,0,0,3,3,-17,-7.590000,-0.270000,314.200012,0,0,5,0,1,0
2016-06-14_13-26-54,1465903614.68297,0,0,0,0,0,0,2,1,-14,-6.480000,-0.440000,312.000000,1,0,5,0,1,0
2016-06-14_13-26-54,1465903614.72024,0,0,0,0,0,0,1,0,-11,-4.580000,-0.190000,309.529999,0,0,5,0,1,0
2016-06-14_13-26-54,1465903614.79535,0,0,0,0,0,0,1,0,-11,-2.510000,-0.390000,306.640015,0,0,5,0,1,0
2016-06-14_13-26-54,1465903614.83309,0,0,0,0,0,0,0,-1,-12,-0.870000,-0.340000,303.160004,0,0,5,0,1,0
2016-06-14_13-26-54,1465903614.87037,0,0,0,0,0,0,0,0,-13,0.990000,-0.250000,298.720001,0,0,5,0,1,0
2016-06-14_13-26-54,1465903614.94538,0,0,0,0,0,0,1,0,-15,2.400000,0.260000,294.140015,0,0,5,0,1,0
2016-06-14_13-26-54,1465903614.98278,0,0,0,0,0,0,1,0,-20,3.130000,0.610000,290.170013,0,0,5,0,1,0
2016-06-14_13-26-55,1465903615.02025,0,0,0,0,0,0,1,0,-20,3.390000,0.980000,287.000000,0,0,5,0,1,0
2016-06-14_13-26-55,1465903615.09559,0,0,0,0,0,0,-1,0,-19,2.830000,2.050000,284.589996,0,0,5,0,1,0
2016-06-14_13-26-55,1465903615.13274,0,0,0,0,0,0,-3,0,-14,2.590000,4.040000,282.040009,0,0,5,0,1,0
2016-06-14_13-26-55,1465903615.17046,0,0,0,0,0,0,-3,1,-15,3.090000,6.120000,278.929993,0,0,5,0,1,0
2016-06-14_13-26-55,1465903615.24536,0,0,0,0,0,0,-4,2,-16,3.820000,7.760000,275.600006,0,0,5,0,1,0
2016-06-14_13-26-55,1465903615.31976,0,0,0,0,0,0,-4,3,-16,4.280000,9.460000,272.559998,1,0,5,0,1,0
2016-06-14_13-26-55,1465903615.32205,0,0,0,0,0,0,-3,3,-13,3.670000,11.380000,270.549988,0,0,5,0,1,0
2016-06-14_13-26-55,1465903615.35796,0,0,0,0,0,0,-1,1,-11,2.480000,13.050000,269.380005,0,0,5,0,1,0
2016-06-14_13-26-55,1465903615.43308,0,0,0,0,0,0,-1,0,-11,1.330000,14.010000,268.690002,0,0,5,0,1,0
2016-06-14_13-26-55,1465903615.47045,0,0,0,0,0,0,0,0,-10,0.000000,14.720000,267.730011,0,0,5,0,1,0
2016-06-14_13-26-55,1465903615.58220,0,0,0,0,0,0,0,2,-12,-1.990000,15.570000,266.570007,0,0,5,0,1,0
2016-06-14_13-26-55,1465903615.58434,0,0,0,0,0,0,-1,3,-18,-3.650000,16.580000,265.940002,0,0,5,0,1,0
2016-06-14_13-26-55,1465903615.65746,0,0,0,0,0,0,-2,4,-19,-4.090000,17.879999,265.589996,0,0,5,0,1,0
2016-06-14_13-26-55,1465903615.69494,0,0,0,0,0,0,-2,4,-23,-4.080000,19.150000,265.459991,0,0,5,0,1,0
2016-06-14_13-26-55,1465903615.73262,0,0,0,0,0,0,0,7,-19,-4.250000,20.730000,265.309998,0,0,5,0,1,0
2016-06-14_13-26-55,1465903615.80826,0,0,0,0,0,0,1,8,-14,-5.220000,22.070000,265.470001,0,0,5,0,1,0
2016-06-14_13-26-55,1465903615.84543,0,0,0,0,0,0,2,8,-15,-5.880000,22.049999,265.010010,0,0,5,0,1,0
2016-06-14_13-26-55,1465903615.91973,100,105,0,0,0,0,1,8,-16,-6.020000,22.320000,263.839996,0,0,5,0,1,0
2016-06-14_13-26-55,1465903615.92250,0,0,0,0,0,0,0,7,-12,-5.890000,24.110001,262.839996,1,0,5,0,1,0
2016-06-14_13-26-55,1465903615.99541,0,0,0,0,0,0,0,4,-10,-5.110000,26.129999,261.579987,0,0,5,0,1,0
2016-06-14_13-26-56,1465903616.06974,0,0,0,0,0,0,-1,3,-10,-4.250000,27.170000,259.869995,0,0,5,0,1,0
2016-06-14_13-26-56,1465903616.07216,0,0,0,0,0,0,-1,5,-9,-3.670000,27.920000,257.750000,0,0,5,0,1,0
2016-06-14_13-26-56,1465903616.18251,0,0,0,0,0,0,-2,6,-11,-3.650000,28.820000,255.880005,0,0,5,0,1,0
2016-06-14_13-26-56,1465903616.18531,0,0,0,0,0,0,-2,7,-16,-3.650000,29.410000,254.429993,0,0,5,0,1,0
2016-06-14_13-26-56,1465903616.22016,0,0,0,0,0,0,-2,8,-18,-3.090000,29.340000,253.309998,0,0,5,0,1,0
2016-06-14_13-26-56,1465903616.29543,0,0,0,0,0,0,-3,8,-19,-2.300000,28.590000,253.050003,0,0,5,0,1,0
2016-06-14_13-26-56,1465903616.33297,0,0,0,0,0,0,-4,7,-16,-1.790000,27.650000,253.619995,0,0,5,0,1,0
2016-06-14_13-26-56,1465903616.37049,0,0,0,0,0,0,-6,8,-11,-1.490000,25.809999,254.190002,0,0,5,0,1,0
2016-06-14_13-26-56,1465903616.51999,0,0,0,0,0,0,-6,6,-15,-1.730000,23.110001,254.940002,0,0,5,0,1,0
2016-06-14_13-26-56,1465903616.52216,0,0,0,0,0,0,-6,5,-15,-1.870000,20.540001,254.970001,0,0,5,0,1,0
2016-06-14_13-26-56,1465903616.52276,0,0,0,0,0,0,-4,6,-13,-2.000000,19.299999,254.639999,1,0,5,0,1,0
2016-06-14_13-26-56,1465903616.59544,0,0,0,0,0,0,-3,4,-11,-2.840000,18.959999,254.910004,0,0,5,0,1,0
2016-06-14_13-26-56,1465903616.70731,0,0,0,0,0,0,-1,3,-11,-4.070000,18.590000,255.550003,0,0,5,0,1,0
2016-06-14_13-26-56,1465903616.70948,0,0,0,0,0,0,0,2,-11,-5.130000,18.230000,256.160004,0,0,5,0,1,0
2016-06-14_13-26-56,1465903616.74554,0,0,0,0,0,0,0,2,-11,-6.060000,17.440001,256.489990,0,0,5,0,1,0
2016-06-14_13-26-56,1465903616.78301,0,0,0,0,0,0,-1,3,-13,-6.840000,16.750000,256.589996,0,0,5,0,1,0
2016-06-14_13-26-56,1465903616.82032,0,0,0,0,0,0,-1,3,-18,-7.410000,16.480000,256.489990,0,0,5,0,1,0
2016-06-14_13-26-56,1465903616.89525,0,0,0,0,0,0,-1,4,-19,-8.010000,16.430000,256.500000,0,0,5,0,1,0
2016-06-14_13-26-56,1465903616.93291,0,0,0,0,0,0,-1,5,-24,-8.800000,16.730000,256.829987,0,0,5,0,1,0
2016-06-14_13-26-56,1465903616.97053,0,0,0,0,0,0,1,6,-16,-9.490000,17.930000,256.950012,0,0,5,0,1,0
2016-06-14_13-26-57,1465903617.04545,0,0,0,0,0,0,2,7,-15,-10.220000,17.170000,256.970001,0,0,5,0,1,0
2016-06-14_13-26-57,1465903617.08299,0,0,0,0,0,0,3,6,-15,-10.750000,15.090000,256.579987,0,0,5,0,1,0
2016-06-14_13-26-57,1465903617.12032,0,0,0,0,0,0,3,6,-16,-11.190000,13.540000,255.940002,0,0,5,0,1,0
2016-06-14_13-26-57,1465903617.19544,0,0,0,0,0,0,2,5,-14,-11.640000,12.940000,255.300003,1,0,5,0,1,0
2016-06-14_13-26-57,1465903617.23302,0,0,0,0,0,0,1,4,-11,-11.210000,12.890000,254.169998,0,0,5,0,1,0
2016-06-14_13-26-57,1465903617.30771,0,0,0,0,0,0,0,3,-11,-10.200000,12.670000,253.009995,0,0,5,0,1,0
2016-06-14_13-26-57,1465903617.34542,0,0,0,0,0,0,0,3,-11,-9.210000,12.570000,252.330002,0,0,5,0,1,0
2016-06-14_13-26-57,1465903617.41978,0,0,0,0,0,0,0,4,-13,-8.490000,12.810000,252.070007,0,0,5,0,1,0
2016-06-14_13-26-57,1465903617.42200,0,0,0,0,0,0,0,4,-15,-7.940000,13.490000,252.169998,0,0,5,0,1,0
2016-06-14_13-26-57,1465903617.49547,0,0,0,0,0,0,0,4,-18,-7.470000,13.610000,252.589996,0,0,5,0,1,0
2016-06-14_13-26-57,1465903617.53303,0,0,0,0,0,0,1,4,-20,-7.110000,13.140000,253.179993,0,0,5,0,1,0
2016-06-14_13-26-57,1465903617.57054,0,0,0,0,0,0,0,3,-20,-7.000000,12.680000,254.149994,0,0,5,0,1,0
2016-06-14_13-26-57,1465903617.64546,0,0,0,0,0,0,-2,4,-15,-5.970000,12.050000,254.820007,0,0,5,0,1,0
2016-06-14_13-26-57,1465903617.68303,0,0,0,0,0,0,-4,4,-15,-4.010000,10.700000,255.380005,0,0,5,0,1,0
2016-06-14_13-26-57,1465903617.72016,0,0,0,0,0,0,-5,3,-17,-2.480000,9.230000,256.609985,0,0,5,0,1,0
2016-06-14_13-26-57,1465903617.79544,0,0,0,0,0,0,-4,3,-15,-1.670000,9.270000,258.029999,1,0,5,0,1,0
2016-06-14_13-26-57,1465903617.86957,0,0,0,0,0,0,-2,2,-12,-2.170000,10.480000,259.670013,0,0,5,0,1,0
2016-06-14_13-26-57,1465903617.87178,0,0,0,0,0,0,-1,2,-11,-3.160000,11.120000,261.049988,0,0,5,0,1,0
2016-06-14_13-26-57,1465903617.98245,0,0,0,0,0,0,0,1,-11,-4.150000,11.190000,262.109985,0,0,5,0,1,0
2016-06-14_13-26-57,1465903617.98481,0,0,0,0,0,0,0,1,-12,-4.940000,11.100000,263.079987,0,0,5,0,1,0
2016-06-14_13-26-58,1465903618.05726,0,0,0,0,0,0,0,1,-13,-5.300000,11.060000,263.910004,0,0,5,0,1,0
2016-06-14_13-26-58,1465903618.05947,0,0,0,0,0,0,-1,1,-19,-5.300000,11.230000,264.369995,0,0,5,0,1,0
2016-06-14_13-26-58,1465903618.13280,0,0,0,0,0,0,-1,2,-19,-5.070000,11.300000,264.440002,0,0,5,0,1,0
2016-06-14_13-26-58,1465903618.17049,0,0,0,0,0,0,-2,1,-24,-4.910000,10.900000,264.429993,0,0,5,0,1,0
2016-06-14_13-26-58,1465903618.24548,0,0,0,0,0,0,0,5,-17,-4.540000,10.580000,264.149994,0,0,5,0,1,0
2016-06-14_13-26-58,1465903618.31974,0,0,0,0,0,0,1,6,-15,-5.480000,10.520000,264.600006,0,0,5,0,1,0
2016-06-14_13-26-58,1465903618.32201,0,0,0,0,0,0,2,6,-15,-6.380000,10.120000,265.160004,0,0,5,0,1,0
2016-06-14_13-26-58,1465903618.39541,0,0,0,0,0,0,2,5,-16,-6.850000,9.920000,265.279999,0,0,5,0,1,0
2016-06-14_13-26-58,1465903618.46983,0,0,0,0,0,0,0,4,-13,-6.940000,10.540000,264.799988,1,0,5,0,1,0
2016-06-14_13-26-58,1465903618.47203,0,0,0,0,0,0,0,4,-11,-6.500000,11.170000,264.019989,0,0,5,0,1,0
2016-06-14_13-26-58,1465903618.54530,0,0,0,0,0,0,0,2,-11,-5.900000,11.350000,263.410004,0,0,5,0,1,0
2016-06-14_13-26-58,1465903618.58291,0,0,0,0,0,0,0,2,-12,-5.340000,11.540000,262.940002,0,0,5,0,1,0
2016-06-14_13-26-58,1465903618.69486,0,0,0,0,0,0,0,2,-12,-4.810000,11.930000,262.399994,0,0,5,0,1,0
2016-06-14_13-26-58,1465903618.69702,0,0,0,0,0,0,0,3,-16,-4.310000,12.360000,261.760010,0,0,5,0,1,0
2016-06-14_13-26-58,1465903618.73302,0,0,0,0,0,0,0,3,-19,-3.710000,12.420000,261.140015,0,0,5,0,1,0
2016-06-14_13-26-58,1465903618.80789,0,0,0,0,0,0,0,3,-19,-3.260000,12.290000,260.790009,0,0,5,0,1,0
2016-06-14_13-26-58,1465903618.84547,0,0,0,0,0,0,-1,3,-18,-3.210000,12.290000,260.899994,0,0,5,0,1,0
2016-06-14_13-26-58,1465903618.88289,0,0,0,0,0,0,-4,3,-15,-3.070000,11.900000,261.220001,0,0,5,0,1,0
2016-06-14_13-26-58,1465903618.95779,0,0,0,0,0,0,-5,3,-15,-2.530000,11.400000,261.350006,0,0,5,0,1,0
2016-06-14_13-26-58,1465903618.99547,0,0,0,0,0,0,-5,2,-15,-2.060000,11.070000,261.450012,0,0,5,0,1,0
2016-06-14_13-26-59,1465903619.10719,0,0,0,0,0,0,-4,3,-15,-1.960000,11.180000,261.529999,1,0,5,0,1,0
2016-06-14_13-26-59,1465903619.14485,0,0,0,0,0,0,-3,3,-13,-2.990000,12.050000,262.089996,0,0,5,0,1,0
2016-06-14_13-26-59,1465903619.14692,0,0,0,0,0,0,-1,3,-12,-4.870000,12.950000,263.109985,0,0,5,0,1,0
2016-06-14_13-26-59,1465903619.25738,0,0,0,0,0,0,0,3,-12,-6.790000,13.110000,264.309998,0,0,5,0,1,0
2016-06-14_13-26-59,1465903619.25962,0,0,0,0,0,0,0,2,-11,-8.370000,13.110000,265.559998,0,0,5,0,1,0
2016-06-14_13-26-59,1465903619.36978,0,0,0,0,0,0,0,2,-12,-9.600000,13.500000,266.670013,0,0,5,0,1,0
2016-06-14_13-26-59,1465903619.37191,0,0,0,0,0,0,0,2,-18,-10.180000,13.880000,267.149994,0,0,5,0,1,0
2016-06-14_13-26-59,1465903619.37392,0,0,0,0,0,0,0,3,-18,-10.490000,14.030000,267.119995,0,0,5,0,1,0
2016-06-14_13-26-59,1465903619.44550,0,0,0,0,0,0,0,3,-23,-10.840000,13.950000,266.880005,0,0,5,0,1,0
2016-06-14_13-26-59,1465903619.48299,0,0,0,0,0,0,0,5,-19,-10.660000,14.160000,265.910004,0,0,5,0,1,0
2016-06-14_13-26-59,1465903619.52050,0,0,0,0,0,0,1,7,-13,-10.960000,14.410000,265.179993,0,0,5,0,1,0
2016-06-14_13-26-59,1465903619.59550,0,0,0,0,0,0,2,6,-15,-11.570000,14.010000,264.920013,0,0,5,0,1,0
2016-06-14_13-26-59,1465903619.66982,0,0,0,0,0,0,3,7,-14,-12.080000,13.500000,264.739990,0,0,5,0,1,0
2016-06-14_13-26-59,1465903619.67203,0,0,0,0,0,0,2,6,-15,-13.000000,13.780000,265.299988,1,0,5,0,1,0
2016-06-14_13-26-59,1465903619.74555,0,0,0,0,0,0,1,5,-12,-13.000000,15.080000,265.190002,0,0,5,0,1,0
2016-06-14_13-26-59,1465903619.78272,0,0,0,0,0,0,0,4,-11,-12.230000,15.940000,264.489990,0,0,5,0,1,0
2016-06-14_13-26-59,1465903619.85808,0,0,0,0,0,0,0,4,-12,-11.490000,16.299999,263.859985,0,0,5,0,1,0
2016-06-14_13-26-59,1465903619.89550,0,0,0,0,0,0,0,4,-12,-10.730000,16.719999,263.140015,0,0,5,0,1,0
2016-06-14_13-26-59,1465903619.96993,0,0,0,0,0,0,0,4,-14,-9.870000,17.200001,262.179993,0,0,5,0,1,0
2016-06-14_13-26-59,1465903619.97223,0,0,0,0,0,0,0,5,-17,-9.180000,17.379999,261.220001,0,0,5,0,1,0
2016-06-14_13-27-00,1465903620.11987,0,0,0,0,0,0,0,6,-17,-8.840000,17.480000,260.679993,0,0,5,0,1,0
2016-06-14_13-27-00,1465903620.12226,0,0,0,0,0,0,-1,7,-18,-8.580000,17.680000,260.690002,0,0,5,0,1,0
2016-06-14_13-27-00,1465903620.12290,0,0,0,0,0,0,-3,6,-16,-8.090000,18.000000,261.109985,0,0,5,0,1,0
2016-06-14_13-27-00,1465903620.23240,0,0,0,0,0,0,-5,5,-14,-7.790000,18.340000,261.839996,0,0,5,0,1,0
2016-06-14_13-27-00,1465903620.23471,0,0,0,0,0,0,-4,4,-14,-7.550000,18.240000,262.480011,0,0,5,0,1,0
2016-06-14_13-27-00,1465903620.34487,0,0,0,0,0,0,-4,4,-13,-7.330000,17.740000,263.190002,0,0,5,0,1,0
2016-06-14_13-27-00,1465903620.34701,0,0,0,0,0,0,-3,4,-12,-7.510000,17.850000,264.470001,1,0,5,0,1,0
2016-06-14_13-27-00,1465903620.38353,0,0,0,0,0,0,-2,4,-11,-7.990000,18.709999,265.970001,0,0,5,0,1,0
2016-06-14_13-27-00,1465903620.42061,0,0,0,0,0,0,-2,3,-11,-8.550000,19.500000,267.089996,0,0,5,0,1,0
2016-06-14_13-27-00,1465903620.53290,0,0,0,0,0,0,-2,3,-12,-9.050000,19.920000,267.589996,0,0,5,0,1,0
2016-06-14_13-27-00,1465903620.56997,0,0,0,0,0,0,-2,3,-12,-9.540000,20.360001,267.549988,0,0,5,0,1,0
2016-06-14_13-27-00,1465903620.57232,0,0,0,0,0,0,-3,4,-14,-10.100000,21.360001,267.100006,0,0,5,0,1,0
2016-06-14_13-27-00,1465903620.75804,0,0,0,0,0,0,-2,5,-18,-10.630000,22.500000,266.179993,0,0,5,0,1,0
2016-06-14_13-27-00,1465903620.76024,0,0,0,0,0,0,-2,6,-16,-11.020000,22.980000,264.910004,0,0,5,0,1,0
2016-06-14_13-27-00,1465903620.76068,0,0,0,0,0,0,-2,6,-19,-11.280000,23.090000,263.700012,0,0,5,0,1,0
2016-06-14_13-27-00,1465903620.79555,0,0,0,0,0,0,-1,10,-13,-11.520000,23.410000,262.570007,0,0,5,0,1,0
2016-06-14_13-27-00,1465903620.86999,0,0,0,0,0,0,0,10,-13,-12.320000,23.610001,262.279999,0,0,5,0,1,0
2016-06-14_13-27-00,1465903620.90809,0,0,0,0,0,0,1,9,-14,-12.840000,23.270000,262.230011,0,0,5,0,1,0
2016-06-14_13-27-00,1465903620.94554,0,0,0,0,0,0,1,9,-15,-13.180000,23.059999,262.559998,0,0,5,0,1,0
2016-06-14_13-27-00,1465903620.98361,0,0,0,0,0,0,0,7,-13,-13.430000,23.620001,262.869995,1,0,5,0,1,0
2016-06-14_13-27-01,1465903621.05803,0,0,0,0,0,0,0,5,-11,-13.240000,23.840000,262.100006,0,0,5,0,1,0
2016-06-14_13-27-01,1465903621.13248,0,0,0,0,0,0,-1,5,-11,-12.920000,23.219999,260.700012,0,0,5,0,1,0
2016-06-14_13-27-01,1465903621.13462,0,0,0,0,0,0,-1,5,-11,-12.820000,23.010000,259.450012,0,0,5,0,1,0
2016-06-14_13-27-01,1465903621.17055,0,0,0,0,0,0,-1,6,-10,-12.920000,23.430000,258.649994,0,0,5,0,1,0
2016-06-14_13-27-01,1465903621.24555,0,0,0,0,0,0,-1,6,-14,-13.110000,23.700001,258.630005,0,0,5,0,1,0
2016-06-14_13-27-01,1465903621.28327,0,0,0,0,0,0,-1,8,-16,-13.070000,24.219999,259.329987,0,0,5,0,1,0
2016-06-14_13-27-01,1465903621.35817,0,0,0,0,0,0,0,13,-15,-12.770000,24.840000,261.940002,0,0,5,0,1,0
2016-06-14_13-27-01,1465903621.46992,0,0,0,0,0,0,0,13,-14,-11.420000,24.930000,268.799988,0,0,5,0,1,0
2016-06-14_13-27-01,1465903621.47211,0,0,0,0,0,0,-1,12,-12,-8.530000,24.270000,280.790009,0,0,5,0,1,0
2016-06-14_13-27-01,1465903621.47256,0,0,0,0,0,0,-2,5,-15,-4.950000,22.809999,296.809998,0,0,5,0,1,0
2016-06-14_13-27-01,1465903621.61987,0,0,0,0,0,0,-4,1,-14,-1.180000,20.530001,311.700012,0,0,5,0,1,0
2016-06-14_13-27-01,1465903621.62211,0,0,0,0,0,0,-5,0,-15,0.990000,18.420000,323.750000,0,0,5,0,1,0
2016-06-14_13-27-01,1465903621.62256,0,0,0,0,0,0,-4,0,-12,1.970000,17.260000,332.429993,1,0,5,0,1,0
2016-06-14_13-27-01,1465903621.69651,0,0,0,0,0,0,-3,0,-12,1.800000,16.750000,338.359985,0,0,5,0,1,0
2016-06-14_13-27-01,1465903621.76992,0,0,0,0,0,0,-2,0,-12,0.900000,15.950000,342.630005,0,0,5,0,1,0
2016-06-14_13-27-01,1465903621.77214,0,0,0,0,0,0,-2,0,-12,-0.220000,14.600000,345.779999,0,0,5,0,1,0
2016-06-14_13-27-01,1465903621.84541,0,0,0,0,0,0,-2,0,-14,-1.100000,13.210000,348.329987,0,0,5,0,1,0
2016-06-14_13-27-01,1465903621.95751,0,0,0,0,0,0,-2,0,-16,-1.280000,12.360000,350.140015,0,0,5,0,1,0
2016-06-14_13-27-01,1465903621.95968,0,0,0,0,0,0,-1,-1,-17,-1.620000,11.210000,351.140015,0,0,5,0,1,0
2016-06-14_13-27-02,1465903622.03246,0,0,0,0,0,0,0,-2,-20,-2.540000,9.170000,351.489990,0,0,5,0,1,0
2016-06-14_13-27-02,1465903622.03460,0,0,0,0,0,0,0,0,-21,-3.020000,7.610000,350.970001,0,0,5,0,1,0
2016-06-14_13-27-02,1465903622.07086,0,0,0,0,0,0,-1,4,-15,-3.430000,7.390000,350.880005,0,0,5,0,1,0
2016-06-14_13-27-02,1465903622.14560,0,0,0,0,0,0,0,5,-14,-4.090000,7.860000,352.309998,0,0,5,0,1,0
2016-06-14_13-27-02,1465903622.25720,0,0,0,0,0,0,1,4,-16,-4.990000,7.220000,355.869995,0,0,5,0,1,0
2016-06-14_13-27-02,1465903622.25938,0,0,0,0,0,0,1,4,-18,-5.630000,6.760000,0.900000,1,0,5,0,1,0
2016-06-14_13-27-02,1465903622.29560,0,0,0,0,0,0,0,2,-15,-5.110000,7.460000,6.720000,0,0,5,0,1,0
2016-06-14_13-27-02,1465903622.33308,0,0,0,0,0,0,1,0,-12,-3.730000,7.930000,12.550000,0,0,5,0,1,0
2016-06-14_13-27-02,1465903622.37063,0,0,0,0,0,0,0,-2,-12,-2.870000,7.630000,17.740000,0,0,5,0,1,0
2016-06-14_13-27-02,1465903622.44564,0,0,0,0,0,0,0,-1,-13,-2.610000,7.180000,21.370001,0,0,5,0,1,0
2016-06-14_13-27-02,1465903622.48357,0,0,0,0,0,0,0,0,-12,-2.400000,6.820000,23.600000,0,0,5,0,1,0
2016-06-14_13-27-02,1465903622.52088,0,0,0,0,0,0,0,0,-16,-2.110000,6.560000,25.219999,0,0,5,0,1,0
2016-06-14_13-27-02,1465903622.59560,0,0,0,0,0,0,0,0,-20,-1.980000,6.700000,26.320000,0,0,5,0,1,0
2016-06-14_13-27-02,1465903622.63284,0,0,0,0,0,0,1,-1,-18,-1.860000,7.040000,25.389999,0,0,5,0,1,0
2016-06-14_13-27-02,1465903622.67057,0,0,0,0,0,0,1,-2,-19,-2.480000,6.500000,21.360001,0,0,5,0,1,0
2016-06-14_13-27-02,1465903622.74571,0,0,0,0,0,0,0,0,-18,-3.260000,5.380000,14.760000,0,0,5,0,1,0
2016-06-14_13-27-02,1465903622.78308,0,0,0,0,0,0,-2,2,-15,-3.460000,5.020000,8.200000,0,0,5,0,1,0
2016-06-14_13-27-02,1465903622.85809,0,0,0,0,0,0,-4,1,-15,-3.840000,4.720000,4.220000,0,0,5,0,1,0
2016-06-14_13-27-02,1465903622.89556,0,0,0,0,0,0,-3,1,-15,-3.780000,4.730000,2.370000,0,0,5,0,1,0
2016-06-14_13-27-02,1465903622.96991,0,0,0,0,0,0,-2,0,-12,-3.960000,5.480000,1.700000,1,0,5,0,1,0
2016-06-14_13-27-02,1465903622.97207,0,0,0,0,0,0,-1,1,-12,-4.760000,6.460000,1.340000,0,0,5,0,1,0
2016-06-14_13-27-03,1465903623.08233,0,0,0,0,0,0,-1,1,-12,-5.960000,7.370000,1.090000,0,0,5,0,1,0
2016-06-14_13-27-03,1465903623.08452,0,0,0,0,0,0,0,2,-12,-7.430000,7.850000,1.340000,0,0,5,0,1,0
2016-06-14_13-27-03,1465903623.12064,0,0,0,0,0,0,0,0,-16,-9.040000,8.170000,2.280000,0,0,5,0,1,0
2016-06-14_13-27-03,1465903623.19560,0,0,0,0,0,0,0,0,-18,-9.790000,8.700000,2.350000,0,0,5,0,1,0
2016-06-14_13-27-03,1465903623.34568,0,0,0,0,0,0,0,1,-19,-9.790000,8.700000,1.730000,0,0,5,0,1,0
2016-06-14_13-27-03,1465903623.34630,0,0,0,0,0,0,0,1,-21,-9.770000,9.230000,1.000000,0,0,5,0,1,0
2016-06-14_13-27-03,1465903623.34868,0,0,0,0,0,0,1,1,-18,-10.250000,9.930000,359.540009,0,0,5,0,1,0
2016-06-14_13-27-03,1465903623.45723,0,0,0,0,0,0,3,6,-14,-10.320000,8.640000,356.779999,0,0,5,0,1,0
2016-06-14_13-27-03,1465903623.45896,0,0,0,0,0,0,4,4,-16,-10.080000,7.050000,354.309998,0,0,5,0,1,0
2016-06-14_13-27-03,1465903623.49564,0,0,0,0,0,0,4,4,-15,-9.250000,5.890000,352.600006,0,0,5,0,1,0
2016-06-14_13-27-03,1465903623.53311,0,0,0,0,0,0,2,2,-15,-9.050000,6.060000,351.720001,1,0,5,0,1,0
2016-06-14_13-27-03,1465903623.57067,0,0,0,0,0,0,1,0,-11,-8.930000,7.560000,350.010010,0,0,5,0,1,0
2016-06-14_13-27-03,1465903623.64571,0,0,0,0,0,0,1,0,-11,-9.200000,8.610000,346.899994,0,0,5,0,1,0
2016-06-14_13-27-03,1465903623.68301,0,0,0,0,0,0,1,1,-12,-9.500000,8.720000,342.809998,0,0,5,0,1,0
2016-06-14_13-27-03,1465903623.72063,0,0,0,0,0,0,1,0,-13,-9.820000,8.730000,337.989990,0,0,5,0,1,0
2016-06-14_13-27-03,1465903623.79569,0,0,0,0,0,0,2,0,-15,-9.940000,8.240000,331.630005,0,0,5,0,1,0
2016-06-14_13-27-03,1465903623.83345,0,0,0,0,0,0,3,2,-19,-10.190000,7.280000,324.390015,0,0,5,0,1,0
2016-06-14_13-27-03,1465903623.87072,0,0,0,0,0,0,2,3,-18,-10.580000,6.080000,317.839996,0,0,5,0,1,0
2016-06-14_13-27-03,1465903623.94571,0,0,0,0,0,0,2,3,-18,-10.440000,4.850000,312.440002,0,0,5,0,1,0
2016-06-14_13-27-04,1465903624.02009,0,0,0,0,0,0,2,5,-16,-10.150000,3.910000,308.220001,0,0,5,0,1,0
2016-06-14_13-27-04,1465903624.02321,0,0,0,0,0,0,1,5,-16,-10.410000,4.110000,305.369995,0,0,5,0,1,0
2016-06-14_13-27-04,1465903624.09583,0,0,0,0,0,0,1,5,-15,-10.490000,4.830000,302.989990,0,0,5,0,1,0
2016-06-14_13-27-04,1465903624.13315,0,0,0,0,0,0,1,5,-15,-10.540000,5.320000,301.269989,0,0,5,0,1,0
2016-06-14_13-27-04,1465903624.20814,0,0,0,0,0,0,1,4,-14,-11.180000,6.070000,300.339996,1,0,5,0,1,0
2016-06-14_13-27-04,1465903624.28256,0,0,0,0,0,0,1,2,-13,-12.210000,6.570000,299.970001,0,0,5,0,1,0
2016-06-14_13-27-04,1465903624.28479,0,0,0,0,0,0,1,2,-12,-12.250000,6.490000,299.519989,0,0,5,0,1,0
2016-06-14_13-27-04,1465903624.32062,0,0,0,0,0,0,0,1,-12,-11.700000,5.990000,299.140015,0,0,5,0,1,0
2016-06-14_13-27-04,1465903624.39578,0,0,0,0,0,0,0,1,-12,-11.100000,5.170000,298.890015,0,0,5,0,1,0
2016-06-14_13-27-04,1465903624.43326,0,0,0,0,0,0,0,1,-15,-10.870000,4.370000,298.790009,0,0,5,0,1,0
2016-06-14_13-27-04,1465903624.50813,0,0,0,0,0,0,0,0,-20,-10.780000,3.940000,298.529999,0,0,5,0,1,0
2016-06-14_13-27-04,1465903624.58227,0,0,0,0,0,0,1,2,-18,-10.420000,3.510000,297.850006,0,0,5,0,1,0
2016-06-14_13-27-04,1465903624.58473,0,0,0,0,0,0,1,1,-22,-9.910000,3.530000,297.149994,0,0,5,0,1,0
2016-06-14_13-27-04,1465903624.62049,0,0,0,0,0,0,3,2,-16,-8.830000,3.350000,295.940002,0,0,5,0,1,0
2016-06-14_13-27-04,1465903624.73311,0,0,0,0,0,0,4,0,-17,-8.850000,2.350000,295.200012,0,0,5,0,1,0
2016-06-14_13-27-04,1465903624.73523,0,0,0,0,0,0,4,0,-16,-8.480000,0.980000,294.200012,0,0,5,0,1,0
2016-06-14_13-27-04,1465903624.92003,0,0,0,0,0,0,4,3,-16,-8.560000,0.460000,294.089996,0,0,5,0,1,0
2016-06-14_13-27-04,1465903624.92239,0,0,0,0,0,0,3,5,-13,-9.280000,1.750000,296.950012,1,0,5,0,1,0
2016-06-14_13-27-04,1465903624.92291,130,220,0,0,0,0,2,3,-12,-9.310000,3.760000,303.260010,0,0,5,0,1,0
2016-06-14_13-27-04,1465903624.92327,0,0,0,0,0,0,2,0,-11,-7.940000,5.000000,311.390015,0,0,5,0,1,0
2016-06-14_13-27-04,1465903624.99552,0,0,0,0,0,0,1,0,-11,-6.690000,5.280000,319.109985,0,0,5,0,1,0
2016-06-14_13-27-05,1465903625.03317,0,0,0,0,0,0,1,-1,-14,-6.230000,5.390000,325.369995,0,0,5,0,1,0
2016-06-14_13-27-05,1465903625.07072,0,0,0,0,0,0,2,-1,-19,-5.950000,5.190000,329.549988,0,0,5,0,1,0
2016-06-14_13-27-05,1465903625.14576,0,0,0,0,0,0,2,0,-19,-5.870000,4.760000,332.239990,0,0,5,0,1,0
2016-06-14_13-27-05,1465903625.22005,0,0,0,0,0,0,2,0,-21,-6.020000,4.440000,334.510010,0,0,5,0,1,0
2016-06-14_13-27-05,1465903625.22221,0,0,0,0,0,0,0,0,-17,-6.320000,4.560000,336.970001,0,0,5,0,1,0
2016-06-14_13-27-05,1465903625.29570,0,0,0,0,0,0,-2,1,-15,-6.070000,4.640000,339.049988,0,0,5,0,1,0
2016-06-14_13-27-05,1465903625.33326,0,0,0,0,0,0,-2,2,-15,-5.710000,4.480000,340.649994,0,0,5,0,1,0
2016-06-14_13-27-05,1465903625.40803,64,150,0,2,0,0,-3,2,-16,-5.640000,4.600000,342.019989,0,0,5,0,1,0
2016-06-14_13-27-05,1465903625.44573,0,0,0,0,0,0,-2,3,-14,-5.810000,5.330000,343.549988,1,0,5,0,1,0
2016-06-14_13-27-05,1465903625.48311,0,0,0,0,0,0,0,5,-13,-6.780000,6.030000,346.369995,0,0,5,0,1,0
2016-06-14_13-27-05,1465903625.52066,0,0,0,0,0,0,1,6,-12,-7.670000,6.580000,352.089996,0,0,5,0,1,0
2016-06-14_13-27-05,1465903625.59568,0,0,0,0,0,0,3,7,-11,-7.770000,7.550000,2.510000,0,0,5,0,1,0
2016-06-14_13-27-05,1465903625.63318,0,0,0,0,0,0,4,2,-12,-7.150000,8.890000,18.680000,0,0,5,0,1,0
2016-06-14_13-27-05,1465903625.67065,0,0,0,0,0,0,3,-3,-15,-4.900000,9.810000,36.119999,0,0,5,0,1,0
2016-06-14_13-27-05,1465903625.74577,0,0,0,0,0,0,2,-5,-17,-2.290000,10.210000,49.939999,0,0,5,0,1,0
2016-06-14_13-27-05,1465903625.78305,0,0,0,0,0,0,0,-3,-20,-1.130000,9.970000,58.820000,0,0,5,0,1,0
2016-06-14_13-27-05,1465903625.82057,0,0,0,0,0,0,1,0,-22,-1.040000,9.830000,63.270000,0,0,5,0,1,0
2016-06-14_13-27-05,1465903625.89572,0,0,0,0,0,0,-1,3,-17,-1.490000,10.310000,64.959999,0,0,5,0,1,0
2016-06-14_13-27-05,1465903625.96979,0,0,0,0,0,0,-1,4,-15,-1.740000,11.150000,65.250000,0,0,5,0,1,0
2016-06-14_13-27-05,1465903625.97216,0,0,0,0,0,0,-1,4,-16,-2.080000,10.980000,65.080002,0,0,5,0,1,0
2016-06-14_13-27-06,1465903626.04540,0,0,0,0,0,0,-1,4,-16,-1.940000,10.640000,64.449997,0,0,5,0,1,0
2016-06-14_13-27-06,1465903626.11997,0,0,0,0,0,0,-1,2,-14,-1.190000,10.260000,63.709999,1,0,5,0,1,0
2016-06-14_13-27-06,1465903626.12221,120,197,0,0,0,0,-1,1,-12,0.030000,9.500000,63.070000,0,0,5,0,1,0
2016-06-14_13-27-06,1465903626.23253,0,0,0,0,0,0,0,0,-12,0.830000,8.480000,62.439999,0,0,5,0,1,0
2016-06-14_13-27-06,1465903626.23471,0,0,0,0,0,0,0,0,-12,1.180000,7.620000,61.360001,0,0,5,0,1,0
2016-06-14_13-27-06,1465903626.27075,0,0,0,0,0,0,0,1,-12,1.440000,7.140000,59.770000,0,0,5,0,1,0
2016-06-14_13-27-06,1465903626.38253,0,0,0,0,0,0,0,1,-18,1.410000,6.710000,58.150002,0,0,5,0,1,0
2016-06-14_13-27-06,1465903626.38463,0,0,0,0,0,0,0,2,-18,1.320000,6.460000,56.619999,0,0,5,0,1,0
2016-06-14_13-27-06,1465903626.42074,0,0,0,0,0,0,0,2,-22,1.070000,6.140000,55.310001,0,0,5,0,1,0
2016-06-14_13-27-06,1465903626.49567,0,0,0,0,0,0,0,0,-19,0.620000,5.770000,54.380001,0,0,5,0,1,0
2016-06-14_13-27-06,1465903626.53318,0,0,0,0,0,0,-3,-1,-17,0.230000,4.790000,53.490002,0,0,5,0,1,0
2016-06-14_13-27-06,1465903626.57072,0,0,0,0,0,0,-3,-2,-15,0.210000,3.510000,52.529999,0,0,5,0,1,0
2016-06-14_13-27-06,1465903626.64576,130,177,0,0,0,0,-3,-3,-15,-0.170000,2.080000,52.509998,0,0,5,0,1,0
2016-06-14_13-27-06,1465903626.68300,0,0,0,0,0,0,-2,-2,-15,-0.770000,0.920000,53.110001,1,0,5,0,1,0
2016-06-14_13-27-06,1465903626.72076,0,0,0,0,0,0,-1,-1,-14,-1.440000,0.650000,54.180000,0,0,5,0,1,0
2016-06-14_13-27-06,1465903626.79571,0,0,0,0,0,0,0,0,-11,-1.850000,0.740000,55.459999,0,0,5,0,1,0
2016-06-14_13-27-06,1465903626.83320,0,0,0,0,0,0,0,-1,-12,-2.510000,0.080000,57.759998,0,0,5,0,1,0
2016-06-14_13-27-06,1465903626.87073,0,0,0,0,0,0,0,-2,-12,-2.700000,-0.650000,60.529999,0,0,5,0,1,0
2016-06-14_13-27-06,1465903626.94577,0,0,0,0,0,0,0,-3,-13,-2.340000,-0.770000,62.549999,0,0,5,0,1,0
2016-06-14_13-27-07,1465903627.02006,0,0,0,0,0,0,1,-3,-18,-2.080000,-0.630000,63.689999,0,0,5,0,1,0
2016-06-14_13-27-07,1465903627.02242,0,0,0,0,0,0,1,-3,-20,-2.230000,-0.860000,64.419998,0,0,5,0,1,0
2016-06-14_13-27-07,1465903627.17020,0,0,0,0,0,0,1,-2,-21,-1.990000,-0.970000,64.410004,0,0,5,0,1,0
2016-06-14_13-27-07,1465903627.17233,0,0,0,0,0,0,0,0,-18,-1.990000,-0.390000,63.730000,0,0,5,0,1,0
2016-06-14_13-27-07,1465903627.28263,0,0,0,0,0,0,0,2,-15,-1.980000,0.700000,61.810001,0,0,5,0,1,0
2016-06-14_13-27-07,1465903627.28486,0,0,0,0,0,0,0,3,-15,-1.990000,0.760000,59.299999,0,0,5,0,1,0
2016-06-14_13-27-07,1465903627.28532,0,0,0,0,0,0,0,2,-18,-2.050000,0.210000,57.689999,0,0,5,0,1,0
2016-06-14_13-27-07,1465903627.32071,0,0,0,0,0,0,0,1,-14,-1.450000,0.310000,56.889999,1,0,5,0,1,0
2016-06-14_13-27-07,1465903627.39573,130,160,0,0,0,0,0,0,-12,-0.630000,0.550000,56.389999,0,0,5,0,1,0
2016-06-14_13-27-07,1465903627.43319,0,0,0,0,0,0,0,0,-12,-0.130000,0.340000,55.880001,0,0,5,0,1,0
2016-06-14_13-27-07,1465903627.50828,0,0,0,0,0,0,0,-1,-13,0.370000,-0.180000,55.340000,0,0,5,0,1,0
2016-06-14_13-27-07,1465903627.58263,0,0,0,0,0,0,0,-1,-13,1.140000,-0.190000,54.630001,0,0,5,0,1,0
2016-06-14_13-27-07,1465903627.58505,0,0,0,0,0,0,0,0,-15,2.070000,0.060000,53.849998,0,0,5,0,1,0
2016-06-14_13-27-07,1465903627.65821,0,0,0,0,0,0,0,-1,-19,2.510000,0.150000,53.570000,0,0,5,0,1,0
2016-06-14_13-27-07,1465903627.69572,0,0,0,0,0,0,0,-1,-20,2.600000,0.060000,53.439999,0,0,5,0,1,0
2016-06-14_13-27-07,1465903627.77009,0,0,0,0,0,0,0,0,-18,2.080000,0.180000,53.150002,0,0,5,0,1,0
2016-06-14_13-27-07,1465903627.77222,0,0,0,0,0,0,-1,-3,-17,1.100000,0.120000,52.470001,0,0,5,0,1,0
2016-06-14_13-27-07,1465903627.84584,0,0,0,0,0,0,-2,-3,-16,0.660000,0.050000,50.320000,0,0,5,0,1,0
2016-06-14_13-27-07,1465903627.88309,140,139,0,0,0,0,-2,-2,-16,0.490000,0.130000,46.919998,0,0,5,0,1,0
2016-06-14_13-27-07,1465903627.92072,0,0,0,0,0,0,-3,-1,-16,0.710000,0.230000,43.459999,1,0,5,0,1,0
2016-06-14_13-27-07,1465903627.99568,0,0,0,0,0,0,-2,0,-15,1.020000,0.760000,40.790001,0,0,5,0,1,0
2016-06-14_13-27-08,1465903628.07013,0,0,0,0,0,0,-1,0,-12,0.990000,2.320000,38.810001,0,0,5,0,1,0
2016-06-14_13-27-08,1465903628.07229,0,0,0,0,0,0,-1,0,-12,0.350000,3.870000,37.599998,0,0,5,0,1,0
2016-06-14_13-27-08,1465903628.18252,0,0,0,0,0,0,0,0,-12,-0.510000,4.880000,37.090000,0,0,5,0,1,0
2016-06-14_13-27-08,1465903628.18465,0,0,0,0,0,0,-1,1,-12,-1.420000,5.630000,37.119999,0,0,5,0,1,0
2016-06-14_13-27-08,1465903628.22074,0,0,0,0,0,0,-1,0,-14,-2.080000,6.510000,37.360001,0,0,5,0,1,0
2016-06-14_13-27-08,1465903628.29575,0,0,0,0,0,0,-1,0,-19,-2.220000,6.820000,37.369999,0,0,5,0,1,0
2016-06-14_13-27-08,1465903628.33325,0,0,0,0,0,0,-1,0,-20,-2.320000,6.570000,37.240002,0,0,5,0,1,0
2016-06-14_13-27-08,1465903628.40830,150,186,0,0,0,0,0,0,-21,-2.190000,6.550000,36.680000,0,0,5,0,1,0
2016-06-14_13-27-08,1465903628.52008,0,0,0,0,0,0,0,4,-15,-2.460000,7.010000,35.990002,0,0,5,0,1,0
2016-06-14_13-27-08,1465903628.52237,0,0,0,0,0,0,1,4,-14,-3.590000,7.540000,35.880001,0,0,5,0,1,0
2016-06-14_13-27-08,1465903628.52290,0,0,0,0,0,0,2,5,-15,-4.630000,7.650000,36.349998,0,0,5,0,1,0
2016-06-14_13-27-08,1465903628.67017,0,0,0,0,0,0,2,4,-16,-5.640000,7.980000,37.790001,1,0,5,0,1,0
2016-06-14_13-27-08,1465903628.70770,0,0,0,0,0,0,1,3,-15,-6.160000,9.500000,39.169998,0,0,5,0,1,0
2016-06-14_13-27-08,1465903628.71027,0,0,0,0,0,0,0,3,-12,-5.870000,11.420000,39.970001,0,0,5,0,1,0
2016-06-14_13-27-08,1465903628.74583,0,0,0,0,0,0,0,2,-12,-5.220000,12.580000,40.389999,0,0,5,0,1,0
2016-06-14_13-27-08,1465903628.78313,0,0,0,0,0,0,0,2,-12,-4.500000,13.120000,40.580002,0,0,5,0,1,0
2016-06-14_13-27-08,1465903628.82093,0,0,0,0,0,0,0,2,-12,-3.730000,13.590000,40.630001,0,0,5,0,1,0
2016-06-14_13-27-08,1465903628.89574,0,0,0,0,0,0,0,2,-16,-2.850000,13.980000,40.349998,0,0,5,0,1,0
2016-06-14_13-27-09,1465903629.12001,0,0,0,0,0,0,0,5,-18,-2.100000,13.990000,40.099998,0,0,5,0,1,0
2016-06-14_13-27-09,1465903629.12253,0,0,0,0,0,0,0,6,-22,-1.420000,13.150000,41.830002,0,0,5,0,1,0
2016-06-14_13-27-09,1465903629.12306,0,0,0,0,0,0,-1,3,-19,-0.640000,11.870000,46.740002,0,0,5,0,1,0
2016-06-14_13-27-09,1465903629.12348,0,0,0,0,0,0,-3,0,-17,-0.030000,10.340000,53.430000,0,0,5,0,1,0
2016-06-14_13-27-09,1465903629.12539,0,0,0,0,0,0,-4,0,-15,0.420000,9.280000,59.680000,0,0,5,0,1,0
2016-06-14_13-27-09,1465903629.19581,0,0,0,0,0,0,-4,-2,-14,0.430000,8.430000,64.540001,0,0,5,0,1,0
2016-06-14_13-27-09,1465903629.27006,0,0,0,0,0,0,-3,-1,-15,0.150000,7.590000,67.870003,0,0,5,0,1,0
2016-06-14_13-27-09,1465903629.27220,0,0,0,0,0,0,-3,0,-14,-0.140000,7.400000,70.480003,1,0,5,0,1,0
2016-06-14_13-27-09,1465903629.38256,0,0,0,0,0,0,-2,0,-12,-0.110000,8.200000,72.970001,0,0,5,0,1,0
2016-06-14_13-27-09,1465903629.38465,0,0,0,0,0,0,-2,0,-12,-0.360000,9.440000,75.790001,0,0,5,0,1,0
2016-06-14_13-27-09,1465903629.45825,0,0,0,0,0,0,-1,0,-12,-0.890000,10.270000,78.779999,0,0,5,0,1,0
2016-06-14_13-27-09,1465903629.49574,0,0,0,0,0,0,-2,0,-13,-1.240000,10.370000,81.120003,0,0,5,0,1,0
2016-06-14_13-27-09,1465903629.53325,0,0,0,0,0,0,-2,0,-15,-1.130000,10.230000,82.419998,0,0,5,0,1,0
2016-06-14_13-27-09,1465903629.57082,0,0,0,0,0,0,-1,0,-18,-1.120000,9.550000,83.300003,0,0,5,0,1,0
2016-06-14_13-27-09,1465903629.64587,0,0,0,0,0,0,0,0,-21,-1.580000,8.690000,84.209999,0,0,5,0,1,0
2016-06-14_13-27-09,1465903629.68307,0,0,0,0,0,0,0,1,-21,-2.080000,8.000000,84.980003,0,0,5,0,1,0
2016-06-14_13-27-09,1465903629.72081,0,0,0,0,0,0,-1,6,-14,-2.830000,8.000000,85.529999,0,0,5,0,1,0
2016-06-14_13-27-09,1465903629.83258,0,0,0,0,0,0,0,5,-16,-3.570000,7.850000,85.970001,0,0,5,0,1,0
2016-06-14_13-27-09,1465903629.83467,0,0,0,0,0,0,0,4,-16,-3.890000,7.210000,86.239998,0,0,5,0,1,0
2016-06-14_13-27-09,1465903629.90830,0,0,0,0,0,0,0,2,-16,-3.630000,6.600000,86.199997,1,0,5,0,1,0
2016-06-14_13-27-09,1465903629.94586,0,0,0,0,0,0,0,0,-13,-2.490000,6.110000,85.739998,0,0,5,0,1,0
2016-06-14_13-27-10,1465903630.02011,0,0,0,0,0,0,0,0,-12,-0.990000,5.450000,85.250000,0,0,5,0,1,0
2016-06-14_13-27-10,1465903630.02222,0,0,0,0,0,0,0,-1,-12,0.400000,4.620000,84.940002,0,0,5,0,1,0
2016-06-14_13-27-10,1465903630.13265,0,0,0,0,0,0,-1,-2,-13,1.910000,3.840000,84.510002,0,0,5,0,1,0
2016-06-14_13-27-10,1465903630.13502,0,0,0,0,0,0,-1,-1,-14,3.570000,3.300000,83.790001,0,0,5,0,1,0
2016-06-14_13-27-10,1465903630.24515,0,0,0,0,0,0,-1,-1,-17,4.980000,2.750000,83.169998,0,0,5,0,1,0
2016-06-14_13-27-10,1465903630.24725,0,0,0,0,0,0,-1,0,-19,5.830000,2.540000,82.940002,0,0,5,0,1,0
2016-06-14_13-27-10,1465903630.28318,0,0,0,0,0,0,-1,0,-22,5.760000,3.000000,83.129997,0,0,5,0,1,0
2016-06-14_13-27-10,1465903630.35830,0,0,0,0,0,0,-3,0,-20,5.200000,3.260000,83.660004,0,0,5,0,1,0
2016-06-14_13-27-10,1465903630.43259,0,0,0,0,0,0,-4,0,-16,4.980000,2.930000,84.070000,0,0,5,0,1,0
2016-06-14_13-27-10,1465903630.43465,0,0,0,0,0,0,-4,0,-16,4.630000,2.650000,84.870003,0,0,5,0,1,0
2016-06-14_13-27-10,1465903630.47077,0,0,0,0,0,0,-4,-1,-15,4.200000,2.450000,86.160004,0,0,5,0,1,0
2016-06-14_13-27-10,1465903630.58257,0,0,0,0,0,0,-3,-1,-13,4.120000,2.130000,87.260002,1,0,5,0,1,0
2016-06-14_13-27-10,1465903630.58466,0,0,0,0,0,0,-2,0,-12,3.670000,2.100000,88.309998,0,0,5,0,1,0
2016-06-14_13-27-10,1465903630.62078,0,0,0,0,0,0,-1,0,-11,2.500000,2.430000,89.379997,0,0,5,0,1,0
2016-06-14_13-27-10,1465903630.69579,0,0,0,0,0,0,0,0,-12,1.150000,2.450000,90.309998,0,0,5,0,1,0
2016-06-14_13-27-10,1465903630.73336,0,0,0,0,0,0,0,0,-12,0.320000,2.180000,90.970001,0,0,5,0,1,0
2016-06-14_13-27-10,1465903630.95767,0,0,0,0,0,0,0,-1,-14,-0.150000,1.960000,91.459999,0,0,5,0,1,0
2016-06-14_13-27-10,1465903630.99514,0,0,0,0,0,0,-1,-2,-19,-0.430000,1.720000,91.699997,0,0,5,0,1,0
2016-06-14_13-27-10,1465903630.99742,0,0,0,0,0,0,-1,-1,-18,-0.220000,1.370000,91.470001,0,0,5,0,1,0
2016-06-14_13-27-10,1465903630.99804,0,0,0,0,0,0,-1,-2,-23,-0.250000,1.100000,91.019997,0,0,5,0,1,0
2016-06-14_13-27-11,1465903631.00008,0,0,0,0,0,0,0,0,-20,-0.140000,0.460000,90.360001,0,0,5,0,1,0
2016-06-14_13-27-11,1465903631.03334,0,0,0,0,0,0,1,2,-16,-0.540000,-0.380000,89.870003,0,0,5,0,1,0
2016-06-14_13-27-11,1465903631.07080,0,0,0,0,0,0,2,1,-15,-1.450000,-1.150000,89.750000,0,0,5,0,1,0
2016-06-14_13-27-11,1465903631.52031,130,165,0,1,0,0,3,2,-15,-2.020000,-2.200000,89.900002,0,0,5,0,1,0
2016-06-14_13-27-11,1465903631.52329,0,0,0,0,0,0,2,0,-16,-2.820000,-2.980000,90.410004,1,0,5,0,1,0
2016-06-14_13-27-11,1465903631.52383,0,0,0,0,0,0,2,0,-14,-2.700000,-2.830000,90.559998,0,0,5,0,1,0
2016-06-14_13-27-11,1465903631.52417,0,0,0,0,0,0,1,0,-12,-1.730000,-2.470000,90.190002,0,0,5,0,1,0
2016-06-14_13-27-11,1465903631.67065,0,0,0,0,0,0,1,0,-12,-0.640000,-2.310000,89.500000,0,0,5,0,1,0
2016-06-14_13-27-11,1465903631.67274,0,0,0,0,0,0,1,0,-12,0.030000,-2.020000,88.690002,0,0,5,0,1,0
2016-06-14_13-27-11,1465903631.85760,0,0,0,0,0,0,1,0,-14,0.370000,-1.690000,87.940002,0,0,5,0,1,0
2016-06-14_13-27-11,1465903631.85989,0,0,0,0,0,0,2,-1,-19,0.900000,-1.680000,87.290001,0,0,5,0,1,0
2016-06-14_13-27-11,1465903631.86033,0,0,0,0,0,0,2,-1,-19,1.510000,-2.220000,86.699997,0,0,5,0,1,0
2016-06-14_13-27-11,1465903631.86068,0,0,0,0,0,0,0,-1,-20,1.860000,-3.020000,86.099998,0,0,5,0,1,0
2016-06-14_13-27-11,1465903631.86279,0,0,0,0,0,0,-1,-1,-17,1.800000,-3.650000,85.669998,0,0,5,0,1,0
2016-06-14_13-27-11,1465903631.86326,0,0,0,0,0,0,-3,-1,-16,1.770000,-3.700000,85.209999,0,0,5,0,1,0
2016-06-14_13-27-11,1465903631.97024,0,0,0,0,0,0,-3,-1,-15,1.970000,-3.160000,84.599998,0,0,5,0,1,0
2016-06-14_13-27-11,1465903631.97259,0,0,0,0,0,0,-3,-2,-15,2.210000,-2.510000,83.669998,0,0,5,0,1,0
2016-06-14_13-27-11,1465903631.97313,0,0,0,0,0,0,-2,-1,-14,2.110000,-1.120000,81.779999,1,0,5,0,1,0
2016-06-14_13-27-11,1465903631.97348,140,168,0,0,0,0,-1,0,-12,1.000000,1.180000,79.370003,0,0,5,0,1,0
2016-06-14_13-27-12,1465903632.00770,0,0,0,0,0,0,0,0,-12,-0.580000,3.880000,77.019997,0,0,5,0,1,0
2016-06-14_13-27-12,1465903632.00974,0,0,0,0,0,0,0,0,-12,-1.960000,6.320000,75.000000,0,0,5,0,1,0
2016-06-14_13-27-12,1465903632.04575,0,0,0,0,0,0,0,1,-11,-3.020000,8.520000,73.040001,0,0,5,0,1,0
2016-06-14_13-27-12,1465903632.15771,0,0,0,0,0,0,0,1,-14,-4.190000,10.930000,71.059998,0,0,5,0,1,0
2016-06-14_13-27-12,1465903632.15977,0,0,0,0,0,0,0,1,-19,-5.180000,12.290000,69.129997,0,0,5,0,1,0
2016-06-14_13-27-12,1465903632.23265,0,0,0,0,0,0,0,2,-19,-5.750000,12.310000,67.059998,0,0,5,0,1,0
2016-06-14_13-27-12,1465903632.23473,0,0,0,0,0,0,0,3,-19,-6.320000,12.950000,64.610001,0,0,5,0,1,0
2016-06-14_13-27-12,1465903632.27085,0,0,0,0,0,0,2,8,-15,-7.010000,14.940000,61.790001,0,0,5,0,1,0
2016-06-14_13-27-12,1465903632.34569,0,0,0,0,0,0,2,7,-17,-8.430000,17.280001,60.060001,0,0,5,0,1,0
2016-06-14_13-27-12,1465903632.38349,130,92,0,0,0,0,3,8,-14,-9.230000,18.750000,58.900002,1,0,5,0,1,0
2016-06-14_13-27-12,1465903632.42085,0,0,0,0,0,0,2,7,-14,-10.090000,20.040001,58.560001,0,0,5,0,1,0
2016-06-14_13-27-12,1465903632.49583,0,0,0,0,0,0,1,6,-11,-10.220000,22.059999,58.020000,0,0,5,0,1,0
2016-06-14_13-27-12,1465903632.57015,0,0,0,0,0,0,0,5,-10,-9.640000,24.340000,57.320000,0,0,5,0,1,0
2016-06-14_13-27-12,1465903632.60834,0,0,0,0,0,0,0,5,-10,-8.810000,26.309999,56.599998,0,0,5,0,1,0
2016-06-14_13-27-12,1465903632.68268,0,0,0,0,0,0,-1,6,-10,-8.020000,27.930000,56.060001,0,0,5,0,1,0
2016-06-14_13-27-12,1465903632.68499,0,0,0,0,0,0,-1,6,-14,-7.460000,29.430000,56.189999,0,0,5,0,1,0
2016-06-14_13-27-12,1465903632.72094,0,0,0,0,0,0,-1,7,-17,-6.810000,30.660000,56.700001,0,0,5,0,1,0
2016-06-14_13-27-12,1465903632.79592,0,0,0,0,0,0,-1,8,-16,-5.970000,31.309999,57.240002,0,0,5,0,1,0
2016-06-14_13-27-12,1465903632.83336,0,0,0,0,0,0,-3,9,-16,-5.330000,32.110001,58.220001,0,0,5,0,1,0
2016-06-14_13-27-12,1465903632.90832,0,0,0,0,0,0,-6,9,-13,-4.630000,32.400002,59.930000,0,0,5,0,1,0
2016-06-14_13-27-12,1465903632.98264,0,0,0,0,0,0,-7,8,-12,-3.800000,31.980000,61.730000,0,0,5,0,1,0
2016-06-14_13-27-12,1465903632.98475,0,0,0,0,0,0,-7,7,-12,-3.370000,31.680000,63.400002,0,0,5,0,1,0
2016-06-14_13-27-13,1465903633.05837,0,0,0,0,0,0,-6,7,-10,-3.300000,31.870001,64.800003,0,0,5,0,1,0
2016-06-14_13-27-13,1465903633.09587,0,0,0,0,0,0,-4,8,-9,-3.810000,32.259998,66.459999,1,0,5,0,1,0
2016-06-14_13-27-13,1465903633.32023,0,0,0,0,0,0,-3,7,-9,-4.860000,32.290001,68.849998,0,0,5,0,1,0
2016-06-14_13-27-13,1465903633.32265,0,0,0,0,0,0,-2,5,-10,-5.660000,31.719999,71.050003,0,0,5,0,1,0
2016-06-14_13-27-13,1465903633.32318,0,0,0,0,0,0,-2,4,-11,-6.250000,30.799999,72.879997,0,0,5,0,1,0
2016-06-14_13-27-13,1465903633.32359,0,0,0,0,0,0,-2,4,-11,-6.750000,30.590000,74.160004,0,0,5,0,1,0
2016-06-14_13-27-13,1465903633.32552,0,0,0,0,0,0,-3,6,-14,-7.220000,30.930000,74.570000,0,0,5,0,1,0
2016-06-14_13-27-13,1465903633.39590,134,193,0,0,0,0,-3,7,-18,-7.750000,30.480000,74.610001,0,0,5,0,1,0
2016-06-14_13-27-13,1465903633.43334,0,0,0,0,0,0,-4,8,-18,-8.190000,29.540001,74.650002,0,0,5,0,1,0
2016-06-14_13-27-13,1465903633.47092,0,0,0,0,0,0,-2,10,-18,-8.560000,29.100000,74.599998,0,0,5,0,1,0
2016-06-14_13-27-13,1465903633.54637,0,0,0,0,0,0,0,12,-12,-9.260000,28.520000,74.959999,0,0,5,0,1,0
2016-06-14_13-27-13,1465903633.65777,0,0,0,0,0,0,1,11,-13,-10.380000,27.320000,76.169998,0,0,5,0,1,0
2016-06-14_13-27-13,1465903633.65995,120,152,0,0,0,0,1,9,-13,-11.470000,26.250000,77.349998,0,0,5,0,1,0
2016-06-14_13-27-13,1465903633.69601,0,0,0,0,0,0,0,7,-12,-11.820000,25.459999,77.459999,1,0,5,0,1,0
2016-06-14_13-27-13,1465903633.77031,0,0,0,0,0,0,0,6,-10,-11.660000,24.879999,76.750000,0,0,5,0,1,0
2016-06-14_13-27-13,1465903633.77251,0,0,0,0,0,0,0,4,-11,-11.200000,24.120001,75.699997,0,0,5,0,1,0
2016-06-14_13-27-13,1465903633.84578,0,0,0,0,0,0,0,4,-11,-10.530000,23.350000,74.559998,0,0,5,0,1,0
2016-06-14_13-27-13,1465903633.95770,0,0,0,0,0,0,0,5,-12,-9.900000,22.850000,73.680000,0,0,5,0,1,0
2016-06-14_13-27-13,1465903633.95978,0,0,0,0,0,0,0,6,-14,-9.140000,22.420000,73.110001,0,0,5,0,1,0
2016-06-14_13-27-14,1465903634.03276,0,0,0,0,0,0,0,6,-18,-8.150000,21.660000,73.019997,0,0,5,0,1,0
2016-06-14_13-27-14,1465903634.03492,0,0,0,0,0,0,0,5,-18,-7.120000,20.680000,73.519997,0,0,5,0,1,0
2016-06-14_13-27-14,1465903634.07090,0,0,0,0,0,0,-1,6,-20,-6.140000,20.160000,74.320000,0,0,5,0,1,0
2016-06-14_13-27-14,1465903634.14576,0,0,0,0,0,0,-5,7,-16,-5.060000,19.930000,75.849998,0,0,5,0,1,0
2016-06-14_13-27-14,1465903634.18322,0,0,0,0,0,0,-7,7,-14,-3.400000,19.190001,78.400002,0,0,5,0,1,0
2016-06-14_13-27-14,1465903634.22094,0,0,0,0,0,0,-6,3,-14,-1.780000,17.549999,82.559998,0,0,5,0,1,0
2016-06-14_13-27-14,1465903634.33270,0,0,0,0,0,0,-4,2,-13,-0.680000,16.180000,87.510002,0,0,5,0,1,0
2016-06-14_13-27-14,1465903634.33476,0,0,0,0,0,0,-3,3,-11,-0.340000,15.400000,92.699997,1,0,5,0,1,0
2016-06-14_13-27-14,1465903634.48275,130,166,0,0,0,0,-2,2,-11,-0.280000,14.190000,98.820000,0,0,5,0,1,0
2016-06-14_13-27-14,1465903634.48491,0,0,0,0,0,0,0,1,-11,0.130000,12.580000,105.190002,0,0,5,0,1,0
2016-06-14_13-27-14,1465903634.48542,0,0,0,0,0,0,-1,-1,-13,0.190000,10.960000,111.360001,0,0,5,0,1,0
2016-06-14_13-27-14,1465903634.52093,0,0,0,0,0,0,-1,-1,-13,0.330000,9.820000,115.610001,0,0,5,0,1,0
2016-06-14_13-27-14,1465903634.63341,0,0,0,0,0,0,-1,-1,-16,0.570000,9.070000,117.970001,0,0,5,0,1,0
2016-06-14_13-27-14,1465903634.63543,0,0,0,0,0,0,0,-1,-18,0.390000,7.620000,119.550003,0,0,5,0,1,0
2016-06-14_13-27-14,1465903634.78278,0,0,0,0,0,0,-1,-1,-22,-0.080000,5.970000,120.849998,0,0,5,0,1,0
2016-06-14_13-27-14,1465903634.78487,0,0,0,0,0,0,-1,1,-20,-0.450000,5.140000,121.769997,0,0,5,0,1,0
2016-06-14_13-27-14,1465903634.78531,0,0,0,0,0,0,-2,5,-16,-1.060000,5.340000,122.440002,0,0,5,0,1,0
2016-06-14_13-27-14,1465903634.82099,0,0,0,0,0,0,0,4,-15,-1.820000,5.590000,123.040001,0,0,5,0,1,0
2016-06-14_13-27-14,1465903634.93271,130,176,0,0,0,0,0,3,-16,-2.290000,5.330000,123.430000,0,0,5,0,1,0
2016-06-14_13-27-14,1465903634.93487,0,0,0,0,0,0,-1,2,-14,-2.080000,5.430000,123.239998,1,0,5,0,1,0
2016-06-14_13-27-14,1465903634.97098,0,0,0,0,0,0,0,1,-12,-1.300000,5.600000,122.599998,0,0,5,0,1,0
2016-06-14_13-27-15,1465903635.04580,0,0,0,0,0,0,0,0,-11,-0.630000,5.180000,122.129997,0,0,5,0,1,0
2016-06-14_13-27-15,1465903635.12029,0,0,0,0,0,0,0,0,-12,-0.190000,4.390000,121.980003,0,0,5,0,1,0
2016-06-14_13-27-15,1465903635.12257,0,0,0,0,0,0,0,0,-13,0.060000,3.810000,122.000000,0,0,5,0,1,0
2016-06-14_13-27-15,1465903635.19591,0,0,0,0,0,0,0,0,-15,0.340000,3.400000,121.940002,0,0,5,0,1,0
2016-06-14_13-27-15,1465903635.23359,0,0,0,0,0,0,0,0,-20,0.520000,3.110000,121.699997,0,0,5,0,1,0
2016-06-14_13-27-15,1465903635.27113,0,0,0,0,0,0,0,1,-18,0.490000,2.940000,121.360001,0,0,5,0,1,0
2016-06-14_13-27-15,1465903635.34608,0,0,0,0,0,0,-1,0,-19,0.520000,2.420000,121.010002,0,0,5,0,1,0
2016-06-14_13-27-15,1465903635.45785,0,0,0,0,0,0,-2,-1,-16,0.720000,1.730000,120.870003,0,0,5,0,1,0
2016-06-14_13-27-15,1465903635.45992,0,0,0,0,0,0,-2,-3,-16,0.820000,0.600000,120.800003,0,0,5,0,1,0
2016-06-14_13-27-15,1465903635.53276,0,0,0,0,0,0,-3,-5,-16,0.840000,-0.460000,120.260002,0,0,5,0,1,0
2016-06-14_13-27-15,1465903635.53483,0,0,0,0,0,0,-3,-3,-15,1.110000,-0.940000,118.720001,0,0,5,0,1,0
2016-06-14_13-27-15,1465903635.57094,0,0,0,0,0,0,-2,-1,-13,1.150000,-0.460000,116.879997,1,0,5,0,1,0
2016-06-14_13-27-15,1465903635.64579,130,154,0,0,0,0,-1,0,-12,0.550000,0.650000,115.489998,0,0,5,0,1,0
2016-06-14_13-27-15,1465903635.68352,0,0,0,0,0,0,0,0,-12,-0.330000,1.560000,114.690002,0,0,5,0,1,0
2016-06-14_13-27-15,1465903635.72092,0,0,0,0,0,0,0,-1,-12,-1.130000,2.050000,114.110001,0,0,5,0,1,0
2016-06-14_13-27-15,1465903635.79604,0,0,0,0,0,0,0,-1,-13,-1.570000,2.450000,113.000000,0,0,5,0,1,0
2016-06-14_13-27-15,1465903635.83364,0,0,0,0,0,0,0,-1,-16,-1.910000,2.960000,111.260002,0,0,5,0,1,0
2016-06-14_13-27-15,1465903635.87097,120,142,0,0,0,0,-1,-1,-19,-2.910000,3.000000,109.930000,0,0,5,0,1,0
2016-06-14_13-27-15,1465903635.94600,0,0,0,0,0,0,0,-1,-20,-4.230000,3.020000,109.099998,0,0,5,0,1,0
2016-06-14_13-27-15,1465903635.98386,0,0,0,0,0,0,0,1,-21,-5.680000,3.230000,108.779999,0,0,5,0,1,0
2016-06-14_13-27-16,1465903636.02101,0,0,0,0,0,0,1,4,-16,-7.390000,3.630000,108.589996,0,0,5,0,1,0
2016-06-14_13-27-16,1465903636.09592,0,0,0,0,0,0,2,5,-15,-8.870000,3.840000,108.190002,0,0,5,0,1,0
2016-06-14_13-27-16,1465903636.13344,140,69,0,0,0,0,2,5,-15,-10.020000,3.270000,108.019997,0,0,5,0,1,0
2016-06-14_13-27-16,1465903636.17110,0,0,0,0,0,0,2,3,-16,-10.900000,2.910000,108.199997,1,0,5,0,1,0
2016-06-14_13-27-16,1465903636.24596,0,0,0,0,0,0,1,2,-14,-10.750000,3.270000,108.120003,0,0,5,0,1,0
2016-06-14_13-27-16,1465903636.35770,0,0,0,0,0,0,1,2,-12,-9.930000,3.730000,108.040001,0,0,5,0,1,0
2016-06-14_13-27-16,1465903636.35985,0,0,0,0,0,0,0,0,-13,-9.330000,3.760000,108.260002,0,0,5,0,1,0
2016-06-14_13-27-16,1465903636.39597,0,0,0,0,0,0,1,0,-13,-8.910000,3.580000,108.459999,0,0,5,0,1,0
2016-06-14_13-27-16,1465903636.43345,0,0,0,0,0,0,1,0,-13,-8.550000,3.240000,108.419998,0,0,5,0,1,0
2016-06-14_13-27-16,1465903636.47102,0,0,0,0,0,0,1,0,-16,-8.390000,2.820000,108.160004,0,0,5,0,1,0
2016-06-14_13-27-16,1465903636.58278,0,0,0,0,0,0,1,1,-18,-8.580000,2.550000,107.949997,0,0,5,0,1,0
2016-06-14_13-27-16,1465903636.58487,0,0,0,0,0,0,2,2,-22,-8.810000,2.860000,108.050003,0,0,5,0,1,0
2016-06-14_13-27-16,1465903636.62100,0,0,0,0,0,0,0,2,-19,-9.010000,3.700000,108.739998,0,0,5,0,1,0
2016-06-14_13-27-16,1465903636.69623,0,0,0,0,0,0,-1,0,-17,-9.060000,4.300000,109.900002,0,0,5,0,1,0
2016-06-14_13-27-16,1465903636.73351,0,0,0,0,0,0,-2,3,-15,-8.740000,4.440000,111.739998,0,0,5,0,1,0
2016-06-14_13-27-16,1465903636.77103,0,0,0,0,0,0,-2,3,-15,-9.270000,4.710000,116.260002,0,0,5,0,1,0
2016-06-14_13-27-16,1465903636.84594,0,0,0,0,0,0,-1,3,-15,-10.130000,6.280000,124.769997,1,0,5,0,1,0
2016-06-14_13-27-16,1465903636.88346,0,0,0,0,0,0,0,1,-13,-10.530000,9.370000,136.380005,0,0,5,0,1,0
2016-06-14_13-27-16,1465903636.92118,0,0,0,0,0,0,0,0,-14,-10.270000,12.800000,148.710007,0,0,5,0,1,0
2016-06-14_13-27-16,1465903636.99603,0,0,0,0,0,0,0,0,-14,-9.580000,15.820000,159.240005,0,0,5,0,1,0
2016-06-14_13-27-17,1465903637.10783,0,0,0,0,0,0,-1,0,-13,-8.900000,18.129999,166.880005,0,0,5,0,1,0
2016-06-14_13-27-17,1465903637.10997,0,0,0,0,0,0,-1,1,-15,-8.220000,19.590000,171.869995,0,0,5,0,1,0
2016-06-14_13-27-17,1465903637.18278,0,0,0,0,0,0,0,1,-16,-7.690000,20.320000,175.130005,0,0,5,0,1,0
2016-06-14_13-27-17,1465903637.18493,0,0,0,0,0,0,0,2,-17,-7.850000,20.610001,177.589996,0,0,5,0,1,0
2016-06-14_13-27-17,1465903637.40780,0,0,0,0,0,0,-1,5,-17,-8.430000,21.549999,179.789993,0,0,5,0,1,0
2016-06-14_13-27-17,1465903637.41002,0,0,0,0,0,0,-1,6,-16,-9.060000,23.260000,182.270004,0,0,5,0,1,0
2016-06-14_13-27-17,1465903637.41053,0,0,0,0,0,0,-1,7,-16,-9.630000,24.500000,185.220001,0,0,5,0,1,0
2016-06-14_13-27-17,1465903637.41223,0,0,0,0,0,0,-2,7,-11,-9.630000,24.969999,187.889999,0,0,5,0,1,0
2016-06-14_13-27-17,1465903637.44587,0,0,0,0,0,0,0,7,-11,-9.330000,24.959999,190.500000,0,0,5,0,1,0
2016-06-14_13-27-17,1465903637.48350,0,0,0,0,0,0,-1,7,-17,-9.890000,25.209999,194.449997,0,0,5,0,1,0
2016-06-14_13-27-17,1465903637.52103,0,0,0,0,0,0,-2,4,-16,-9.190000,26.070000,198.149994,1,0,5,0,1,0
2016-06-14_13-27-17,1465903637.59598,0,0,0,0,0,0,-3,2,-14,-7.270000,25.830000,200.330002,0,0,5,0,1,0
2016-06-14_13-27-17,1465903637.63347,0,0,0,0,0,0,-3,1,-14,-5.950000,25.280001,202.779999,0,0,5,0,1,0
2016-06-14_13-27-17,1465903637.70860,0,0,0,0,0,0,-2,0,-15,-6.150000,25.430000,206.110001,0,0,5,0,1,0
2016-06-14_13-27-17,1465903637.74602,0,0,0,0,0,0,-1,3,-14,-6.700000,25.980000,208.660004,0,0,5,0,1,0
2016-06-14_13-27-17,1465903637.78346,0,0,0,0,0,0,0,5,-13,-6.570000,27.010000,210.729996,0,0,5,0,1,0
2016-06-14_13-27-17,1465903637.82106,0,0,0,0,0,0,-1,7,-13,-5.980000,28.389999,212.809998,0,0,5,0,1,0
2016-06-14_13-27-17,1465903637.85848,0,0,0,0,0,0,-2,10,-13,-5.300000,29.980000,215.270004,0,0,5,0,1,0
2016-06-14_13-27-17,1465903637.97045,0,0,0,0,0,0,-3,8,-16,-4.390000,30.709999,218.630005,0,0,5,0,1,0
2016-06-14_13-27-17,1465903637.97295,0,0,0,0,0,0,-6,5,-18,-3.690000,30.299999,222.619995,0,0,5,0,1,0
2016-06-14_13-27-18,1465903638.04578,0,0,0,0,0,0,-8,5,-16,-2.810000,30.150000,225.919998,0,0,5,0,1,0
2016-06-14_13-27-18,1465903638.12045,0,0,0,0,0,0,-7,4,-15,-1.770000,29.799999,228.350006,0,0,5,0,1,0
2016-06-14_13-27-18,1465903638.12259,0,0,0,0,0,0,-5,3,-12,-1.300000,28.719999,231.050003,0,0,5,0,1,0
2016-06-14_13-27-18,1465903638.19601,0,0,0,0,0,0,-4,3,-12,-1.460000,27.559999,234.080002,0,0,5,0,1,0
2016-06-14_13-27-18,1465903638.23350,0,0,0,0,0,0,-3,3,-12,-1.930000,27.139999,237.389999,0,0,5,0,1,0
2016-06-14_13-27-18,1465903638.27108,0,0,0,0,0,0,-3,2,-12,-1.970000,27.270000,240.149994,1,0,5,0,1,0
2016-06-14_13-27-18,1465903638.34601,0,0,0,0,0,0,-4,2,-12,-1.920000,27.290001,242.259995,0,0,5,0,1,0
2016-06-14_13-27-18,1465903638.38345,150,140,0,0,0,0,-4,3,-12,-1.950000,27.610001,243.580002,0,0,5,0,1,0
2016-06-14_13-27-18,1465903638.42111,0,0,0,0,0,0,-4,4,-16,-2.330000,28.299999,244.509995,0,0,5,0,1,0
2016-06-14_13-27-18,1465903638.49595,0,0,0,0,0,0,-4,4,-16,-2.840000,29.340000,245.229996,0,0,5,0,1,0
2016-06-14_13-27-18,1465903638.57056,0,0,0,0,0,0,-4,5,-17,-3.170000,31.350000,245.399994,0,0,5,0,1,0
2016-06-14_13-27-18,1465903638.60861,0,0,0,0,0,0,-3,9,-13,-3.690000,34.849998,245.119995,0,0,5,0,1,0
2016-06-14_13-27-18,1465903638.64587,0,0,0,0,0,0,-2,12,-10,-4.640000,38.619999,245.240005,0,0,5,0,1,0
2016-06-14_13-27-18,1465903638.72096,0,0,0,0,0,0,-3,10,-14,-5.640000,40.689999,246.279999,0,0,5,0,1,0
2016-06-14_13-27-18,1465903638.72307,0,0,0,0,0,0,-2,10,-11,-6.240000,42.470001,246.839996,1,0,5,0,1,0
2016-06-14_13-27-18,1465903638.79617,0,0,0,0,0,0,-3,8,-10,-6.530000,44.250000,247.029999,0,0,5,0,1,0
2016-06-14_13-27-18,1465903638.90789,0,0,0,0,0,0,-3,8,-8,-6.520000,45.750000,246.479996,0,0,5,0,1,0
2016-06-14_13-27-18,1465903638.91004,110,86,0,0,0,0,-3,9,-8,-6.920000,47.080002,246.300003,0,0,5,0,1,0
2016-06-14_13-27-18,1465903638.94601,0,0,0,0,0,0,-2,9,-6,-7.570000,48.340000,246.309998,0,0,5,0,1,0
2016-06-14_13-27-18,1465903638.98344,0,0,0,0,0,0,-2,10,-5,-8.290000,49.470001,246.610001,0,0,5,0,1,0
2016-06-14_13-27-19,1465903639.02106,0,0,0,0,0,0,-2,10,-6,-8.780000,50.750000,247.300003,0,0,5,0,1,0
2016-06-14_13-27-19,1465903639.09613,0,0,0,0,0,0,-2,10,-8,-8.730000,51.930000,247.970001,0,0,5,0,1,0
2016-06-14_13-27-19,1465903639.13336,150,11,0,0,0,0,-2,9,-6,-8.160000,52.090000,248.470001,0,0,5,0,1,0
2016-06-14_13-27-19,1465903639.17102,0,0,0,0,0,0,-5,10,-13,-7.310000,50.259998,248.830002,0,0,5,0,1,0
2016-06-14_13-27-19,1465903639.28264,0,0,0,0,0,0,-8,15,-19,-6.670000,48.410000,249.529999,0,0,5,0,1,0
2016-06-14_13-27-19,1465903639.28474,0,0,0,0,0,0,-10,17,-16,-5.920000,47.959999,250.759995,0,0,5,0,1,0
2016-06-14_13-27-19,1465903639.35854,0,0,0,0,0,0,-9,16,-13,-4.960000,49.110001,251.220001,0,0,5,0,1,0
2016-06-14_13-27-19,1465903639.39613,0,0,0,0,0,0,-7,11,-9,-4.500000,49.450001,251.190002,0,0,5,0,1,0
2016-06-14_13-27-19,1465903639.43353,0,0,0,0,0,0,-4,7,-7,-4.620000,47.810001,251.179993,0,0,5,0,1,0
2016-06-14_13-27-19,1465903639.50862,0,0,0,0,0,0,-3,5,-7,-4.930000,45.310001,250.820007,0,0,5,0,1,0
2016-06-14_13-27-19,1465903639.54581,0,0,0,0,0,0,-3,4,-5,-5.210000,42.619999,250.130005,1,0,5,0,1,0
2016-06-14_13-27-19,1465903639.58351,0,0,0,0,0,0,-3,4,-8,-5.220000,39.330002,249.050003,0,0,5,0,1,0
2016-06-14_13-27-19,1465903639.62113,0,0,0,0,0,0,-2,3,-7,-5.020000,36.240002,247.750000,0,0,5,0,1,0
2016-06-14_13-27-19,1465903639.73286,0,0,0,0,0,0,-4,5,-10,-4.880000,33.990002,246.449997,0,0,5,0,1,0
2016-06-14_13-27-19,1465903639.73499,0,0,0,0,0,0,-5,8,-16,-4.620000,32.330002,244.539993,0,0,5,0,1,0
2016-06-14_13-27-19,1465903639.77112,0,0,0,0,0,0,-3,10,-18,-4.870000,30.260000,242.869995,0,0,5,0,1,0
2016-06-14_13-27-19,1465903639.84616,0,0,0,0,0,0,0,8,-24,-5.520000,26.910000,241.520004,0,0,5,0,1,0
2016-06-14_13-27-19,1465903639.88385,0,0,0,0,0,0,0,11,-23,-6.020000,24.730000,240.050003,0,0,5,0,1,0
2016-06-14_13-27-19,1465903639.92113,0,0,0,0,0,0,0,10,-19,-6.810000,25.020000,239.550003,0,0,5,0,1,0
2016-06-14_13-27-19,1465903639.99607,0,0,0,0,0,0,0,8,-14,-7.160000,25.860001,239.429993,0,0,5,0,1,0
2016-06-14_13-27-20,1465903640.03362,0,0,0,0,0,0,0,5,-10,-6.650000,25.549999,239.050003,0,0,5,0,1,0
2016-06-14_13-27-20,1465903640.10863,0,0,0,0,0,0,0,3,-8,-6.020000,24.580000,238.600006,0,0,5,0,1,0
2016-06-14_13-27-20,1465903640.18288,0,0,0,0,0,0,0,3,-8,-5.650000,24.070000,238.259995,1,0,5,0,1,0
2016-06-14_13-27-20,1465903640.18497,0,0,0,0,0,0,0,3,-8,-5.580000,24.660000,238.169998,0,0,5,0,1,0
2016-06-14_13-27-20,1465903640.25858,0,0,0,0,0,0,0,2,-9,-5.410000,24.900000,237.979996,0,0,5,0,1,0
2016-06-14_13-27-20,1465903640.29609,0,0,0,0,0,0,0,3,-10,-5.340000,24.820000,237.720001,0,0,5,0,1,0
2016-06-14_13-27-20,1465903640.33354,0,0,0,0,0,0,-1,5,-18,-5.510000,25.480000,237.320007,0,0,5,0,1,0
2016-06-14_13-27-20,1465903640.37086,0,0,0,0,0,0,-4,11,-23,-5.220000,26.290001,236.779999,0,0,5,0,1,0
2016-06-14_13-27-20,1465903640.44600,0,0,0,0,0,0,-8,14,-20,-4.320000,26.809999,236.889999,0,0,5,0,1,0
2016-06-14_13-27-20,1465903640.48395,0,0,0,0,0,0,-8,12,-20,-3.400000,27.440001,237.589996,0,0,5,0,1,0
2016-06-14_13-27-20,1465903640.52105,0,0,0,0,0,0,-6,8,-16,-2.710000,27.200001,238.509995,0,0,5,0,1,0
2016-06-14_13-27-20,1465903640.59616,0,0,0,0,0,0,-3,4,-11,-2.670000,25.360001,239.500000,0,0,5,0,1,0
2016-06-14_13-27-20,1465903640.63361,170,76,0,0,0,0,-1,2,-11,-3.280000,23.080000,240.410004,0,0,5,0,1,0
2016-06-14_13-27-20,1465903640.67107,0,0,0,0,0,0,-1,0,-10,-3.950000,21.490000,241.100006,1,0,5,0,1,0
2016-06-14_13-27-20,1465903640.74598,0,0,0,0,0,0,-1,0,-9,-4.180000,20.420000,241.250000,0,0,5,0,1,0
2016-06-14_13-27-20,1465903640.78339,0,0,0,0,0,0,-2,1,-9,-3.950000,20.129999,240.779999,0,0,5,0,1,0
2016-06-14_13-27-20,1465903640.82107,0,0,0,0,0,0,-2,2,-9,-3.710000,21.670000,239.830002,0,0,5,0,1,0
2016-06-14_13-27-20,1465903640.89619,0,0,0,0,0,0,-2,4,-8,-4.260000,24.129999,238.919998,0,0,5,0,1,0
2016-06-14_13-27-20,1465903640.93358,0,0,0,0,0,0,-2,6,-17,-5.050000,25.580000,237.960007,0,0,5,0,1,0
2016-06-14_13-27-20,1465903640.97112,0,0,0,0,0,0,-2,11,-21,-5.770000,26.459999,237.149994,0,0,5,0,1,0
2016-06-14_13-27-21,1465903641.04601,0,0,0,0,0,0,-1,12,-21,-6.640000,27.170000,237.380005,0,0,5,0,1,0
2016-06-14_13-27-21,1465903641.15790,0,0,0,0,0,0,-1,11,-24,-7.620000,28.200001,238.199997,0,0,5,0,1,0
2016-06-14_13-27-21,1465903641.16005,210,104,0,0,0,0,0,11,-19,-8.300000,30.180000,238.759995,0,0,5,0,1,0
2016-06-14_13-27-21,1465903641.19594,0,0,0,0,0,0,-1,8,-13,-8.670000,32.049999,239.250000,0,0,5,0,1,0
2016-06-14_13-27-21,1465903641.23356,0,0,0,0,0,0,0,6,-7,-8.590000,32.650002,239.600006,0,0,5,0,1,0
2016-06-14_13-27-21,1465903641.34548,0,0,0,0,0,0,0,6,-8,-8.520000,32.820000,240.539993,0,0,5,0,1,0
2016-06-14_13-27-21,1465903641.34787,0,0,0,0,0,0,0,5,-7,-8.510000,33.970001,242.009995,1,0,5,0,1,0
2016-06-14_13-27-21,1465903641.38361,0,0,0,0,0,0,0,4,-7,-8.350000,35.230000,243.419998,0,0,5,0,1,0
2016-06-14_13-27-21,1465903641.45850,0,0,0,0,0,0,0,5,-8,-7.950000,35.860001,244.149994,0,0,5,0,1,0
2016-06-14_13-27-21,1465903641.53296,0,0,0,0,0,0,-1,7,-11,-7.560000,36.770000,244.860001,0,0,5,0,1,0
2016-06-14_13-27-21,1465903641.53507,0,0,0,0,0,0,-5,14,-17,-6.180000,37.959999,245.440002,0,0,5,0,1,0
2016-06-14_13-27-21,1465903641.64548,0,0,0,0,0,0,-10,15,-21,-4.100000,39.900002,247.899994,0,0,5,0,1,0
2016-06-14_13-27-21,1465903641.64770,0,0,0,0,0,0,-12,12,-18,-1.830000,41.320000,250.610001,0,0,5,0,1,0
2016-06-14_13-27-21,1465903641.68361,0,0,0,0,0,0,-10,11,-14,-0.420000,42.200001,252.179993,0,0,5,0,1,0
2016-06-14_13-27-21,1465903641.72116,0,0,0,0,0,0,-7,7,-11,-0.440000,42.070000,253.460007,0,0,5,0,1,0
2016-06-14_13-27-21,1465903641.79618,0,0,0,0,0,0,-4,4,-9,-0.970000,40.889999,254.160004,0,0,5,0,1,0
2016-06-14_13-27-21,1465903641.87053,0,0,0,0,0,0,-3,3,-8,-1.590000,39.630001,254.240005,0,0,5,0,1,0
2016-06-14_13-27-21,1465903641.87266,140,38,0,2,0,0,-2,3,-5,-2.070000,38.990002,253.860001,1,0,5,0,1,0
2016-06-14_13-27-21,1465903641.94600,0,0,0,0,0,0,-1,3,-6,-2.600000,38.950001,253.539993,0,0,5,0,1,0
2016-06-14_13-27-22,1465903642.02044,0,0,0,0,0,0,-3,3,-8,-3.470000,39.169998,253.779999,0,0,5,0,1,0
2016-06-14_13-27-22,1465903642.02250,0,0,0,0,0,0,-3,6,-8,-4.110000,40.060001,253.419998,0,0,5,0,1,0
2016-06-14_13-27-22,1465903642.09617,0,0,0,0,0,0,-4,11,-9,-4.560000,41.099998,253.259995,0,0,5,0,1,0
2016-06-14_13-27-22,1465903642.13356,0,0,0,0,0,0,-6,15,-17,-4.760000,40.689999,253.889999,0,0,5,0,1,0
2016-06-14_13-27-22,1465903642.17113,0,0,0,0,0,0,-6,18,-24,-5.050000,40.080002,254.619995,0,0,5,0,1,0
2016-06-14_13-27-22,1465903642.24600,0,0,0,0,0,0,-5,17,-19,-5.760000,40.810001,255.309998,0,0,5,0,1,0
2016-06-14_13-27-22,1465903642.28359,0,0,0,0,0,0,-4,13,-15,-6.440000,41.090000,254.539993,0,0,5,0,1,0
